ExperimentName,Subject,Gender,Session,Clock.Information,Display.RefreshRate,Group,RandomSeed,SessionDate,SessionTime,SessionTimeUtc,Block,List1,List1.Cycle,List1.Sample,Procedure[Block],Running[Block],Trial,Condition,ConResp[Trial],PracStim,PracStim.Cycle,PracStim.Sample,Procedure[Trial],RespK.ACC[Trial],RespK.CRESP[Trial],RespK.DurationError[Trial],RespK.OnsetDelay[Trial],RespK.OnsetTime[Trial],RespK.RESP[Trial],RespK.RT[Trial],RespK.RTTime[Trial],Running[Trial],Scenario[Trial],SoundFile[Trial],Speaker[Trial],SpeakerBlocks,SpeakerBlocks.Cycle,SpeakerBlocks.Sample,SpeakerNum,SubTrial,ConResp[SubTrial],F0Level,F0LevelNum,Procedure[SubTrial],RespK.ACC[SubTrial],RespK.CRESP[SubTrial],RespK.DurationError[SubTrial],RespK.OnsetDelay[SubTrial],RespK.OnsetTime[SubTrial],RespK.RESP[SubTrial],RespK.RT[SubTrial],RespK.RTTime[SubTrial],Running[SubTrial],Scenario[SubTrial],SoundFile[SubTrial],Speaker[SubTrial],SpeakerGender,StimList,StimList.Cycle,StimList.Sample,StimNumKoreanPoliteness_F0_EQ,1,F,1,"<?xml version=""1.0""?>\n<Clock xmlns:dt=""urn:schemas-microsoft-com:datatypes""><Description dt:dt=""string"">E-Prime Primary Realtime Clock</Description><StartTime><Timestamp dt:dt=""int"">0</Timestamp><DateUtc dt:dt=""string"">2014-10-23T20:02:42Z</DateUtc></StartTime><FrequencyChanges><FrequencyChange><Frequency dt:dt=""r8"">2857431</Frequency><Timestamp dt:dt=""r8"">223275293464</Timestamp><Current dt:dt=""r8"">0</Current><DateUtc dt:dt=""string"">2014-10-23T20:02:42Z</DateUtc></FrequencyChange></FrequencyChanges></Clock>\n",59.944,1,-62433660,10/23/14,13:02:43,8:02:43 PM,2,2,1,2,Test,List1,1,,,,,,BlockProc,,,,,,,,,SpeakerBlocks,,,,3,1,1,3,1,8,MidHi,4,TrialProc,0,8,-999999,21,222159,2,1370,223529,StimList,2,08Perc_HiF0_3_2_con.wav,3,M,10,1,1,10KoreanPoliteness_F0_EQ,1,F,1,"<?xml version=""1.0""?>\n<Clock xmlns:dt=""urn:schemas-microsoft-com:datatypes""><Description dt:dt=""string"">E-Prime Primary Realtime Clock</Description><StartTime><Timestamp dt:dt=""int"">0</Timestamp><DateUtc dt:dt=""string"">2014-10-23T20:02:42Z</DateUtc></StartTime><FrequencyChanges><FrequencyChange><Frequency dt:dt=""r8"">2857431</Frequency><Timestamp dt:dt=""r8"">223275293464</Timestamp><Current dt:dt=""r8"">0</Current><DateUtc dt:dt=""string"">2014-10-23T20:02:42Z</DateUtc></FrequencyChange></FrequencyChanges></Clock>\n",59.944,1,-62433660,10/23/14,13:02:43,8:02:43 PM,2,2,1,2,Test,List1,1,,,,,,BlockProc,,,,,,,,,SpeakerBlocks,,,,3,1,1,3,2,8,Lo,1,TrialProc,0,8,-999999,23,226730,2,735,227465,StimList,6,16Perc_LoF0_3_6_con.wav,3,M,29,1,2,29KoreanPoliteness_F0_EQ,1,F,1,"<?xml version=""1.0""?>\n<Clock xmlns:dt=""urn:schemas-microsoft-com:datatypes""><Description dt:dt=""string"">E-Prime Primary Realtime Clock</Description><StartTime><Timestamp dt:dt=""int"">0</Timestamp><DateUtc dt:dt=""string"">2014-10-23T20:02:42Z</DateUtc></StartTime><FrequencyChanges><FrequencyChange><Frequency dt:dt=""r8"">2857431</Frequency><Timestamp dt:dt=""r8"">223275293464</Timestamp><Current dt:dt=""r8"">0</Current><DateUtc dt:dt=""string"">2014-10-23T20:02:42Z</DateUtc></FrequencyChange></FrequencyChanges></Clock>\n",59.944,1,-62433660,10/23/14,13:02:43,8:02:43 PM,2,2,1,2,Test,List1,1,,,,,,BlockProc,,,,,,,,,SpeakerBlocks,,,,3,1,1,3,3,8,MidLo,2,TrialProc,1,8,-999999,27,230234,8,807,231041,StimList,1,08Perc_LoF0_3_1_con.wav,3,M,17,1,3,17KoreanPoliteness_F0_EQ,1,F,1,"<?xml version=""1.0""?>\n<Clock xmlns:dt=""urn:schemas-microsoft-com:datatypes""><Description dt:dt=""string"">E-Prime Primary Realtime Clock</Description><StartTime><Timestamp dt:dt=""int"">0</Timestamp><DateUtc dt:dt=""string"">2014-10-23T20:02:42Z</DateUtc></StartTime><FrequencyChanges><FrequencyChange><Frequency dt:dt=""r8"">2857431</Frequency><Timestamp dt:dt=""r8"">223275293464</Timestamp><Current dt:dt=""r8"">0</Current><DateUtc dt:dt=""string"">2014-10-23T20:02:42Z</DateUtc></FrequencyChange></FrequencyChanges></Clock>\n",59.944,1,-62433660,10/23/14,13:02:43,8:02:43 PM,2,2,1,2,Test,List1,1,,,,,,BlockProc,,,,,,,,,SpeakerBlocks,,,,3,1,1,3,4,8,Hi,5,TrialProc,0,8,-999999,26,234054,2,506,234560,StimList,7,16Perc_HiF0_3_7_con.wav,3,M,6,1,4,6KoreanPoliteness_F0_EQ,1,F,1,"<?xml version=""1.0""?>\n<Clock xmlns:dt=""urn:schemas-microsoft-com:datatypes""><Description dt:dt=""string"">E-Prime Primary Realtime Clock</Description><StartTime><Timestamp dt:dt=""int"">0</Timestamp><DateUtc dt:dt=""string"">2014-10-23T20:02:42Z</DateUtc></StartTime><FrequencyChanges><FrequencyChange><Frequency dt:dt=""r8"">2857431</Frequency><Timestamp dt:dt=""r8"">223275293464</Timestamp><Current dt:dt=""r8"">0</Current><DateUtc dt:dt=""string"">2014-10-23T20:02:42Z</DateUtc></FrequencyChange></FrequencyChanges></Clock>\n",59.944,1,-62433660,10/23/14,13:02:43,8:02:43 PM,2,2,1,2,Test,List1,1,,,,,,BlockProc,,,,,,,,,SpeakerBlocks,,,,3,1,1,3,5,8,MidHi,4,TrialProc,0,8,-999999,19,237507,2,549,238056,StimList,4,08Perc_HiF0_3_4_con.wav,3,M,11,1,5,11KoreanPoliteness_F0_EQ,1,F,1,"<?xml version=""1.0""?>\n<Clock xmlns:dt=""urn:schemas-microsoft-com:datatypes""><Description dt:dt=""string"">E-Prime Primary Realtime Clock</Description><StartTime><Timestamp dt:dt=""int"">0</Timestamp><DateUtc dt:dt=""string"">2014-10-23T20:02:42Z</DateUtc></StartTime><FrequencyChanges><FrequencyChange><Frequency dt:dt=""r8"">2857431</Frequency><Timestamp dt:dt=""r8"">223275293464</Timestamp><Current dt:dt=""r8"">0</Current><DateUtc dt:dt=""string"">2014-10-23T20:02:42Z</DateUtc></FrequencyChange></FrequencyChanges></Clock>\n",59.944,1,-62433660,10/23/14,13:02:43,8:02:43 PM,2,2,1,2,Test,List1,1,,,,,,BlockProc,,,,,,,,,SpeakerBlocks,,,,3,1,1,3,6,8,Lo,1,TrialProc,1,8,-999999,19,241027,8,277,241304,StimList,4,16Perc_LoF0_3_4_con.wav,3,M,27,1,6,27KoreanPoliteness_F0_EQ,1,F,1,"<?xml version=""1.0""?>\n<Clock xmlns:dt=""urn:schemas-microsoft-com:datatypes""><Description dt:dt=""string"">E-Prime Primary Realtime Clock</Description><StartTime><Timestamp dt:dt=""int"">0</Timestamp><DateUtc dt:dt=""string"">2014-10-23T20:02:42Z</DateUtc></StartTime><FrequencyChanges><FrequencyChange><Frequency dt:dt=""r8"">2857431</Frequency><Timestamp dt:dt=""r8"">223275293464</Timestamp><Current dt:dt=""r8"">0</Current><DateUtc dt:dt=""string"">2014-10-23T20:02:42Z</DateUtc></FrequencyChange></FrequencyChanges></Clock>\n",59.944,1,-62433660,10/23/14,13:02:43,8:02:43 PM,2,2,1,2,Test,List1,1,,,,,,BlockProc,,,,,,,,,SpeakerBlocks,,,,3,1,1,3,7,8,MidLo,2,TrialProc,1,8,-999999,22,244780,8,492,245272,StimList,5,08Perc_LoF0_3_5_con.wav,3,M,20,1,7,20KoreanPoliteness_F0_EQ,1,F,1,"<?xml version=""1.0""?>\n<Clock xmlns:dt=""urn:schemas-microsoft-com:datatypes""><Description dt:dt=""string"">E-Prime Primary Realtime Clock</Description><StartTime><Timestamp dt:dt=""int"">0</Timestamp><DateUtc dt:dt=""string"">2014-10-23T20:02:42Z</DateUtc></StartTime><FrequencyChanges><FrequencyChange><Frequency dt:dt=""r8"">2857431</Frequency><Timestamp dt:dt=""r8"">223275293464</Timestamp><Current dt:dt=""r8"">0</Current><DateUtc dt:dt=""string"">2014-10-23T20:02:42Z</DateUtc></FrequencyChange></FrequencyChanges></Clock>\n",59.944,1,-62433660,10/23/14,13:02:43,8:02:43 PM,2,2,1,2,Test,List1,1,,,,,,BlockProc,,,,,,,,,SpeakerBlocks,,,,3,1,1,3,8,8,Lo,1,TrialProc,0,8,-999999,22,248300,2,588,248888,StimList,7,16Perc_LoF0_3_7_con.wav,3,M,30,1,8,30KoreanPoliteness_F0_EQ,1,F,1,"<?xml version=""1.0""?>\n<Clock xmlns:dt=""urn:schemas-microsoft-com:datatypes""><Description dt:dt=""string"">E-Prime Primary Realtime Clock</Description><StartTime><Timestamp dt:dt=""int"">0</Timestamp><DateUtc dt:dt=""string"">2014-10-23T20:02:42Z</DateUtc></StartTime><FrequencyChanges><FrequencyChange><Frequency dt:dt=""r8"">2857431</Frequency><Timestamp dt:dt=""r8"">223275293464</Timestamp><Current dt:dt=""r8"">0</Current><DateUtc dt:dt=""string"">2014-10-23T20:02:42Z</DateUtc></FrequencyChange></FrequencyChanges></Clock>\n",59.944,1,-62433660,10/23/14,13:02:43,8:02:43 PM,2,2,1,2,Test,List1,1,,,,,,BlockProc,,,,,,,,,SpeakerBlocks,,,,3,1,1,3,9,8,Lo,1,TrialProc,0,8,-999999,19,251937,2,447,252384,StimList,9,16Perc_LoF0_3_9_con.wav,3,M,31,1,9,31KoreanPoliteness_F0_EQ,1,F,1,"<?xml version=""1.0""?>\n<Clock xmlns:dt=""urn:schemas-microsoft-com:datatypes""><Description dt:dt=""string"">E-Prime Primary Realtime Clock</Description><StartTime><Timestamp dt:dt=""int"">0</Timestamp><DateUtc dt:dt=""string"">2014-10-23T20:02:42Z</DateUtc></StartTime><FrequencyChanges><FrequencyChange><Frequency dt:dt=""r8"">2857431</Frequency><Timestamp dt:dt=""r8"">223275293464</Timestamp><Current dt:dt=""r8"">0</Current><DateUtc dt:dt=""string"">2014-10-23T20:02:42Z</DateUtc></FrequencyChange></FrequencyChanges></Clock>\n",59.944,1,-62433660,10/23/14,13:02:43,8:02:43 PM,2,2,1,2,Test,List1,1,,,,,,BlockProc,,,,,,,,,SpeakerBlocks,,,,3,1,1,3,10,8,MidLo,2,TrialProc,0,8,-999999,12,255390,2,738,256128,StimList,7,08Perc_LoF0_3_7_con.wav,3,M,22,1,10,22KoreanPoliteness_F0_EQ,1,F,1,"<?xml version=""1.0""?>\n<Clock xmlns:dt=""urn:schemas-microsoft-com:datatypes""><Description dt:dt=""string"">E-Prime Primary Realtime Clock</Description><StartTime><Timestamp dt:dt=""int"">0</Timestamp><DateUtc dt:dt=""string"">2014-10-23T20:02:42Z</DateUtc></StartTime><FrequencyChanges><FrequencyChange><Frequency dt:dt=""r8"">2857431</Frequency><Timestamp dt:dt=""r8"">223275293464</Timestamp><Current dt:dt=""r8"">0</Current><DateUtc dt:dt=""string"">2014-10-23T20:02:42Z</DateUtc></FrequencyChange></FrequencyChanges></Clock>\n",59.944,1,-62433660,10/23/14,13:02:43,8:02:43 PM,2,2,1,2,Test,List1,1,,,,,,BlockProc,,,,,,,,,SpeakerBlocks,,,,3,1,1,3,11,8,MidLo,2,TrialProc,1,8,-999999,22,259060,8,292,259352,StimList,4,08Perc_LoF0_3_4_con.wav,3,M,19,1,11,19KoreanPoliteness_F0_EQ,1,F,1,"<?xml version=""1.0""?>\n<Clock xmlns:dt=""urn:schemas-microsoft-com:datatypes""><Description dt:dt=""string"">E-Prime Primary Realtime Clock</Description><StartTime><Timestamp dt:dt=""int"">0</Timestamp><DateUtc dt:dt=""string"">2014-10-23T20:02:42Z</DateUtc></StartTime><FrequencyChanges><FrequencyChange><Frequency dt:dt=""r8"">2857431</Frequency><Timestamp dt:dt=""r8"">223275293464</Timestamp><Current dt:dt=""r8"">0</Current><DateUtc dt:dt=""string"">2014-10-23T20:02:42Z</DateUtc></FrequencyChange></FrequencyChanges></Clock>\n",59.944,1,-62433660,10/23/14,13:02:43,8:02:43 PM,2,2,1,2,Test,List1,1,,,,,,BlockProc,,,,,,,,,SpeakerBlocks,,,,3,1,1,3,12,8,MidHi,4,TrialProc,1,8,-999999,23,262130,8,814,262944,StimList,1,08Perc_HiF0_3_1_con.wav,3,M,9,1,12,9KoreanPoliteness_F0_EQ,1,F,1,"<?xml version=""1.0""?>\n<Clock xmlns:dt=""urn:schemas-microsoft-com:datatypes""><Description dt:dt=""string"">E-Prime Primary Realtime Clock</Description><StartTime><Timestamp dt:dt=""int"">0</Timestamp><DateUtc dt:dt=""string"">2014-10-23T20:02:42Z</DateUtc></StartTime><FrequencyChanges><FrequencyChange><Frequency dt:dt=""r8"">2857431</Frequency><Timestamp dt:dt=""r8"">223275293464</Timestamp><Current dt:dt=""r8"">0</Current><DateUtc dt:dt=""string"">2014-10-23T20:02:42Z</DateUtc></FrequencyChange></FrequencyChanges></Clock>\n",59.944,1,-62433660,10/23/14,13:02:43,8:02:43 PM,2,2,1,2,Test,List1,1,,,,,,BlockProc,,,,,,,,,SpeakerBlocks,,,,3,1,1,3,13,8,Orig,3,TrialProc,1,8,-999999,13,265700,8,508,266208,StimList,1,3_1_con.wav,3,M,33,1,13,33KoreanPoliteness_F0_EQ,1,F,1,"<?xml version=""1.0""?>\n<Clock xmlns:dt=""urn:schemas-microsoft-com:datatypes""><Description dt:dt=""string"">E-Prime Primary Realtime Clock</Description><StartTime><Timestamp dt:dt=""int"">0</Timestamp><DateUtc dt:dt=""string"">2014-10-23T20:02:42Z</DateUtc></StartTime><FrequencyChanges><FrequencyChange><Frequency dt:dt=""r8"">2857431</Frequency><Timestamp dt:dt=""r8"">223275293464</Timestamp><Current dt:dt=""r8"">0</Current><DateUtc dt:dt=""string"">2014-10-23T20:02:42Z</DateUtc></FrequencyChange></FrequencyChanges></Clock>\n",59.944,1,-62433660,10/23/14,13:02:43,8:02:43 PM,2,2,1,2,Test,List1,1,,,,,,BlockProc,,,,,,,,,SpeakerBlocks,,,,3,1,1,3,14,8,MidLo,2,TrialProc,1,8,-999999,13,269170,8,470,269640,StimList,2,08Perc_LoF0_3_2_con.wav,3,M,18,1,14,18KoreanPoliteness_F0_EQ,1,F,1,"<?xml version=""1.0""?>\n<Clock xmlns:dt=""urn:schemas-microsoft-com:datatypes""><Description dt:dt=""string"">E-Prime Primary Realtime Clock</Description><StartTime><Timestamp dt:dt=""int"">0</Timestamp><DateUtc dt:dt=""string"">2014-10-23T20:02:42Z</DateUtc></StartTime><FrequencyChanges><FrequencyChange><Frequency dt:dt=""r8"">2857431</Frequency><Timestamp dt:dt=""r8"">223275293464</Timestamp><Current dt:dt=""r8"">0</Current><DateUtc dt:dt=""string"">2014-10-23T20:02:42Z</DateUtc></FrequencyChange></FrequencyChanges></Clock>\n",59.944,1,-62433660,10/23/14,13:02:43,8:02:43 PM,2,2,1,2,Test,List1,1,,,,,,BlockProc,,,,,,,,,SpeakerBlocks,,,,3,1,1,3,15,8,Lo,1,TrialProc,0,8,-999999,26,272423,2,473,272896,StimList,1,16Perc_LoF0_3_1_con.wav,3,M,25,1,15,25KoreanPoliteness_F0_EQ,1,F,1,"<?xml version=""1.0""?>\n<Clock xmlns:dt=""urn:schemas-microsoft-com:datatypes""><Description dt:dt=""string"">E-Prime Primary Realtime Clock</Description><StartTime><Timestamp dt:dt=""int"">0</Timestamp><DateUtc dt:dt=""string"">2014-10-23T20:02:42Z</DateUtc></StartTime><FrequencyChanges><FrequencyChange><Frequency dt:dt=""r8"">2857431</Frequency><Timestamp dt:dt=""r8"">223275293464</Timestamp><Current dt:dt=""r8"">0</Current><DateUtc dt:dt=""string"">2014-10-23T20:02:42Z</DateUtc></FrequencyChange></FrequencyChanges></Clock>\n",59.944,1,-62433660,10/23/14,13:02:43,8:02:43 PM,2,2,1,2,Test,List1,1,,,,,,BlockProc,,,,,,,,,SpeakerBlocks,,,,3,1,1,3,16,8,MidHi,4,TrialProc,0,8,-999999,23,276410,2,926,277336,StimList,5,08Perc_HiF0_3_5_con.wav,3,M,12,1,16,12KoreanPoliteness_F0_EQ,1,F,1,"<?xml version=""1.0""?>\n<Clock xmlns:dt=""urn:schemas-microsoft-com:datatypes""><Description dt:dt=""string"">E-Prime Primary Realtime Clock</Description><StartTime><Timestamp dt:dt=""int"">0</Timestamp><DateUtc dt:dt=""string"">2014-10-23T20:02:42Z</DateUtc></StartTime><FrequencyChanges><FrequencyChange><Frequency dt:dt=""r8"">2857431</Frequency><Timestamp dt:dt=""r8"">223275293464</Timestamp><Current dt:dt=""r8"">0</Current><DateUtc dt:dt=""string"">2014-10-23T20:02:42Z</DateUtc></FrequencyChange></FrequencyChanges></Clock>\n",59.944,1,-62433660,10/23/14,13:02:43,8:02:43 PM,2,2,1,2,Test,List1,1,,,,,,BlockProc,,,,,,,,,SpeakerBlocks,,,,3,1,1,3,17,8,Lo,1,TrialProc,1,8,-999999,16,280314,8,318,280632,StimList,2,16Perc_LoF0_3_2_con.wav,3,M,26,1,17,26KoreanPoliteness_F0_EQ,1,F,1,"<?xml version=""1.0""?>\n<Clock xmlns:dt=""urn:schemas-microsoft-com:datatypes""><Description dt:dt=""string"">E-Prime Primary Realtime Clock</Description><StartTime><Timestamp dt:dt=""int"">0</Timestamp><DateUtc dt:dt=""string"">2014-10-23T20:02:42Z</DateUtc></StartTime><FrequencyChanges><FrequencyChange><Frequency dt:dt=""r8"">2857431</Frequency><Timestamp dt:dt=""r8"">223275293464</Timestamp><Current dt:dt=""r8"">0</Current><DateUtc dt:dt=""string"">2014-10-23T20:02:42Z</DateUtc></FrequencyChange></FrequencyChanges></Clock>\n",59.944,1,-62433660,10/23/14,13:02:43,8:02:43 PM,2,2,1,2,Test,List1,1,,,,,,BlockProc,,,,,,,,,SpeakerBlocks,,,,3,1,1,3,18,8,MidHi,4,TrialProc,1,8,-999999,12,283650,8,366,284016,StimList,7,08Perc_HiF0_3_7_con.wav,3,M,14,1,18,14KoreanPoliteness_F0_EQ,1,F,1,"<?xml version=""1.0""?>\n<Clock xmlns:dt=""urn:schemas-microsoft-com:datatypes""><Description dt:dt=""string"">E-Prime Primary Realtime Clock</Description><StartTime><Timestamp dt:dt=""int"">0</Timestamp><DateUtc dt:dt=""string"">2014-10-23T20:02:42Z</DateUtc></StartTime><FrequencyChanges><FrequencyChange><Frequency dt:dt=""r8"">2857431</Frequency><Timestamp dt:dt=""r8"">223275293464</Timestamp><Current dt:dt=""r8"">0</Current><DateUtc dt:dt=""string"">2014-10-23T20:02:42Z</DateUtc></FrequencyChange></FrequencyChanges></Clock>\n",59.944,1,-62433660,10/23/14,13:02:43,8:02:43 PM,2,2,1,2,Test,List1,1,,,,,,BlockProc,,,,,,,,,SpeakerBlocks,,,,3,1,1,3,19,8,MidHi,4,TrialProc,0,8,-999999,22,286820,2,732,287552,StimList,10,08Perc_HiF0_3_10_con.wav,3,M,16,1,19,16KoreanPoliteness_F0_EQ,1,F,1,"<?xml version=""1.0""?>\n<Clock xmlns:dt=""urn:schemas-microsoft-com:datatypes""><Description dt:dt=""string"">E-Prime Primary Realtime Clock</Description><StartTime><Timestamp dt:dt=""int"">0</Timestamp><DateUtc dt:dt=""string"">2014-10-23T20:02:42Z</DateUtc></StartTime><FrequencyChanges><FrequencyChange><Frequency dt:dt=""r8"">2857431</Frequency><Timestamp dt:dt=""r8"">223275293464</Timestamp><Current dt:dt=""r8"">0</Current><DateUtc dt:dt=""string"">2014-10-23T20:02:42Z</DateUtc></FrequencyChange></FrequencyChanges></Clock>\n",59.944,1,-62433660,10/23/14,13:02:43,8:02:43 PM,2,2,1,2,Test,List1,1,,,,,,BlockProc,,,,,,,,,SpeakerBlocks,,,,3,1,1,3,20,8,MidLo,2,TrialProc,1,8,-999999,22,290690,8,846,291536,StimList,6,08Perc_LoF0_3_6_con.wav,3,M,21,1,20,21KoreanPoliteness_F0_EQ,1,F,1,"<?xml version=""1.0""?>\n<Clock xmlns:dt=""urn:schemas-microsoft-com:datatypes""><Description dt:dt=""string"">E-Prime Primary Realtime Clock</Description><StartTime><Timestamp dt:dt=""int"">0</Timestamp><DateUtc dt:dt=""string"">2014-10-23T20:02:42Z</DateUtc></StartTime><FrequencyChanges><FrequencyChange><Frequency dt:dt=""r8"">2857431</Frequency><Timestamp dt:dt=""r8"">223275293464</Timestamp><Current dt:dt=""r8"">0</Current><DateUtc dt:dt=""string"">2014-10-23T20:02:42Z</DateUtc></FrequencyChange></FrequencyChanges></Clock>\n",59.944,1,-62433660,10/23/14,13:02:43,8:02:43 PM,2,2,1,2,Test,List1,1,,,,,,BlockProc,,,,,,,,,SpeakerBlocks,,,,3,1,1,3,21,8,MidLo,2,TrialProc,0,8,-999999,23,294610,2,502,295112,StimList,9,08Perc_LoF0_3_9_con.wav,3,M,23,1,21,23KoreanPoliteness_F0_EQ,1,F,1,"<?xml version=""1.0""?>\n<Clock xmlns:dt=""urn:schemas-microsoft-com:datatypes""><Description dt:dt=""string"">E-Prime Primary Realtime Clock</Description><StartTime><Timestamp dt:dt=""int"">0</Timestamp><DateUtc dt:dt=""string"">2014-10-23T20:02:42Z</DateUtc></StartTime><FrequencyChanges><FrequencyChange><Frequency dt:dt=""r8"">2857431</Frequency><Timestamp dt:dt=""r8"">223275293464</Timestamp><Current dt:dt=""r8"">0</Current><DateUtc dt:dt=""string"">2014-10-23T20:02:42Z</DateUtc></FrequencyChange></FrequencyChanges></Clock>\n",59.944,1,-62433660,10/23/14,13:02:43,8:02:43 PM,2,2,1,2,Test,List1,1,,,,,,BlockProc,,,,,,,,,SpeakerBlocks,,,,3,1,1,3,22,8,MidLo,2,TrialProc,0,8,-999999,26,297963,2,653,298616,StimList,10,08Perc_LoF0_3_10_con.wav,3,M,24,1,22,24KoreanPoliteness_F0_EQ,1,F,1,"<?xml version=""1.0""?>\n<Clock xmlns:dt=""urn:schemas-microsoft-com:datatypes""><Description dt:dt=""string"">E-Prime Primary Realtime Clock</Description><StartTime><Timestamp dt:dt=""int"">0</Timestamp><DateUtc dt:dt=""string"">2014-10-23T20:02:42Z</DateUtc></StartTime><FrequencyChanges><FrequencyChange><Frequency dt:dt=""r8"">2857431</Frequency><Timestamp dt:dt=""r8"">223275293464</Timestamp><Current dt:dt=""r8"">0</Current><DateUtc dt:dt=""string"">2014-10-23T20:02:42Z</DateUtc></FrequencyChange></FrequencyChanges></Clock>\n",59.944,1,-62433660,10/23/14,13:02:43,8:02:43 PM,2,2,1,2,Test,List1,1,,,,,,BlockProc,,,,,,,,,SpeakerBlocks,,,,3,1,1,3,23,8,Hi,5,TrialProc,1,8,-999999,26,301383,8,985,302368,StimList,1,16Perc_HiF0_3_1_con.wav,3,M,1,1,23,1KoreanPoliteness_F0_EQ,1,F,1,"<?xml version=""1.0""?>\n<Clock xmlns:dt=""urn:schemas-microsoft-com:datatypes""><Description dt:dt=""string"">E-Prime Primary Realtime Clock</Description><StartTime><Timestamp dt:dt=""int"">0</Timestamp><DateUtc dt:dt=""string"">2014-10-23T20:02:42Z</DateUtc></StartTime><FrequencyChanges><FrequencyChange><Frequency dt:dt=""r8"">2857431</Frequency><Timestamp dt:dt=""r8"">223275293464</Timestamp><Current dt:dt=""r8"">0</Current><DateUtc dt:dt=""string"">2014-10-23T20:02:42Z</DateUtc></FrequencyChange></FrequencyChanges></Clock>\n",59.944,1,-62433660,10/23/14,13:02:43,8:02:43 PM,2,2,1,2,Test,List1,1,,,,,,BlockProc,,,,,,,,,SpeakerBlocks,,,,3,1,1,3,24,8,Hi,5,TrialProc,0,8,-999999,27,305554,2,438,305992,StimList,6,16Perc_HiF0_3_6_con.wav,3,M,5,1,24,5KoreanPoliteness_F0_EQ,1,F,1,"<?xml version=""1.0""?>\n<Clock xmlns:dt=""urn:schemas-microsoft-com:datatypes""><Description dt:dt=""string"">E-Prime Primary Realtime Clock</Description><StartTime><Timestamp dt:dt=""int"">0</Timestamp><DateUtc dt:dt=""string"">2014-10-23T20:02:42Z</DateUtc></StartTime><FrequencyChanges><FrequencyChange><Frequency dt:dt=""r8"">2857431</Frequency><Timestamp dt:dt=""r8"">223275293464</Timestamp><Current dt:dt=""r8"">0</Current><DateUtc dt:dt=""string"">2014-10-23T20:02:42Z</DateUtc></FrequencyChange></FrequencyChanges></Clock>\n",59.944,1,-62433660,10/23/14,13:02:43,8:02:43 PM,2,2,1,2,Test,List1,1,,,,,,BlockProc,,,,,,,,,SpeakerBlocks,,,,3,1,1,3,25,8,Orig,3,TrialProc,1,8,-999999,20,308907,8,301,309208,StimList,4,3_4_con.wav,3,M,35,1,25,35KoreanPoliteness_F0_EQ,1,F,1,"<?xml version=""1.0""?>\n<Clock xmlns:dt=""urn:schemas-microsoft-com:datatypes""><Description dt:dt=""string"">E-Prime Primary Realtime Clock</Description><StartTime><Timestamp dt:dt=""int"">0</Timestamp><DateUtc dt:dt=""string"">2014-10-23T20:02:42Z</DateUtc></StartTime><FrequencyChanges><FrequencyChange><Frequency dt:dt=""r8"">2857431</Frequency><Timestamp dt:dt=""r8"">223275293464</Timestamp><Current dt:dt=""r8"">0</Current><DateUtc dt:dt=""string"">2014-10-23T20:02:42Z</DateUtc></FrequencyChange></FrequencyChanges></Clock>\n",59.944,1,-62433660,10/23/14,13:02:43,8:02:43 PM,2,2,1,2,Test,List1,1,,,,,,BlockProc,,,,,,,,,SpeakerBlocks,,,,3,1,1,3,26,8,Orig,3,TrialProc,1,8,-999999,26,312243,8,485,312728,StimList,7,3_7_con.wav,3,M,38,1,26,38KoreanPoliteness_F0_EQ,1,F,1,"<?xml version=""1.0""?>\n<Clock xmlns:dt=""urn:schemas-microsoft-com:datatypes""><Description dt:dt=""string"">E-Prime Primary Realtime Clock</Description><StartTime><Timestamp dt:dt=""int"">0</Timestamp><DateUtc dt:dt=""string"">2014-10-23T20:02:42Z</DateUtc></StartTime><FrequencyChanges><FrequencyChange><Frequency dt:dt=""r8"">2857431</Frequency><Timestamp dt:dt=""r8"">223275293464</Timestamp><Current dt:dt=""r8"">0</Current><DateUtc dt:dt=""string"">2014-10-23T20:02:42Z</DateUtc></FrequencyChange></FrequencyChanges></Clock>\n",59.944,1,-62433660,10/23/14,13:02:43,8:02:43 PM,2,2,1,2,Test,List1,1,,,,,,BlockProc,,,,,,,,,SpeakerBlocks,,,,3,1,1,3,27,8,Lo,1,TrialProc,0,8,-999999,24,316281,2,1319,317600,StimList,5,16Perc_LoF0_3_5_con.wav,3,M,28,1,27,28KoreanPoliteness_F0_EQ,1,F,1,"<?xml version=""1.0""?>\n<Clock xmlns:dt=""urn:schemas-microsoft-com:datatypes""><Description dt:dt=""string"">E-Prime Primary Realtime Clock</Description><StartTime><Timestamp dt:dt=""int"">0</Timestamp><DateUtc dt:dt=""string"">2014-10-23T20:02:42Z</DateUtc></StartTime><FrequencyChanges><FrequencyChange><Frequency dt:dt=""r8"">2857431</Frequency><Timestamp dt:dt=""r8"">223275293464</Timestamp><Current dt:dt=""r8"">0</Current><DateUtc dt:dt=""string"">2014-10-23T20:02:42Z</DateUtc></FrequencyChange></FrequencyChanges></Clock>\n",59.944,1,-62433660,10/23/14,13:02:43,8:02:43 PM,2,2,1,2,Test,List1,1,,,,,,BlockProc,,,,,,,,,SpeakerBlocks,,,,3,1,1,3,28,8,Lo,1,TrialProc,0,8,-999999,11,320418,2,702,321120,StimList,10,16Perc_LoF0_3_10_con.wav,3,M,32,1,28,32KoreanPoliteness_F0_EQ,1,F,1,"<?xml version=""1.0""?>\n<Clock xmlns:dt=""urn:schemas-microsoft-com:datatypes""><Description dt:dt=""string"">E-Prime Primary Realtime Clock</Description><StartTime><Timestamp dt:dt=""int"">0</Timestamp><DateUtc dt:dt=""string"">2014-10-23T20:02:42Z</DateUtc></StartTime><FrequencyChanges><FrequencyChange><Frequency dt:dt=""r8"">2857431</Frequency><Timestamp dt:dt=""r8"">223275293464</Timestamp><Current dt:dt=""r8"">0</Current><DateUtc dt:dt=""string"">2014-10-23T20:02:42Z</DateUtc></FrequencyChange></FrequencyChanges></Clock>\n",59.944,1,-62433660,10/23/14,13:02:43,8:02:43 PM,2,2,1,2,Test,List1,1,,,,,,BlockProc,,,,,,,,,SpeakerBlocks,,,,3,1,1,3,29,8,Orig,3,TrialProc,1,8,-999999,27,323954,8,422,324376,StimList,10,3_10_con.wav,3,M,40,1,29,40KoreanPoliteness_F0_EQ,1,F,1,"<?xml version=""1.0""?>\n<Clock xmlns:dt=""urn:schemas-microsoft-com:datatypes""><Description dt:dt=""string"">E-Prime Primary Realtime Clock</Description><StartTime><Timestamp dt:dt=""int"">0</Timestamp><DateUtc dt:dt=""string"">2014-10-23T20:02:42Z</DateUtc></StartTime><FrequencyChanges><FrequencyChange><Frequency dt:dt=""r8"">2857431</Frequency><Timestamp dt:dt=""r8"">223275293464</Timestamp><Current dt:dt=""r8"">0</Current><DateUtc dt:dt=""string"">2014-10-23T20:02:42Z</DateUtc></FrequencyChange></FrequencyChanges></Clock>\n",59.944,1,-62433660,10/23/14,13:02:43,8:02:43 PM,2,2,1,2,Test,List1,1,,,,,,BlockProc,,,,,,,,,SpeakerBlocks,,,,3,1,1,3,30,8,Hi,5,TrialProc,0,8,-999999,21,327408,2,328,327736,StimList,9,16Perc_HiF0_3_9_con.wav,3,M,7,1,30,7KoreanPoliteness_F0_EQ,1,F,1,"<?xml version=""1.0""?>\n<Clock xmlns:dt=""urn:schemas-microsoft-com:datatypes""><Description dt:dt=""string"">E-Prime Primary Realtime Clock</Description><StartTime><Timestamp dt:dt=""int"">0</Timestamp><DateUtc dt:dt=""string"">2014-10-23T20:02:42Z</DateUtc></StartTime><FrequencyChanges><FrequencyChange><Frequency dt:dt=""r8"">2857431</Frequency><Timestamp dt:dt=""r8"">223275293464</Timestamp><Current dt:dt=""r8"">0</Current><DateUtc dt:dt=""string"">2014-10-23T20:02:42Z</DateUtc></FrequencyChange></FrequencyChanges></Clock>\n",59.944,1,-62433660,10/23/14,13:02:43,8:02:43 PM,2,2,1,2,Test,List1,1,,,,,,BlockProc,,,,,,,,,SpeakerBlocks,,,,3,1,1,3,31,8,Orig,3,TrialProc,1,8,-999999,21,331228,8,4,331232,StimList,5,3_5_con.wav,3,M,36,1,31,36KoreanPoliteness_F0_EQ,1,F,1,"<?xml version=""1.0""?>\n<Clock xmlns:dt=""urn:schemas-microsoft-com:datatypes""><Description dt:dt=""string"">E-Prime Primary Realtime Clock</Description><StartTime><Timestamp dt:dt=""int"">0</Timestamp><DateUtc dt:dt=""string"">2014-10-23T20:02:42Z</DateUtc></StartTime><FrequencyChanges><FrequencyChange><Frequency dt:dt=""r8"">2857431</Frequency><Timestamp dt:dt=""r8"">223275293464</Timestamp><Current dt:dt=""r8"">0</Current><DateUtc dt:dt=""string"">2014-10-23T20:02:42Z</DateUtc></FrequencyChange></FrequencyChanges></Clock>\n",59.944,1,-62433660,10/23/14,13:02:43,8:02:43 PM,2,2,1,2,Test,List1,1,,,,,,BlockProc,,,,,,,,,SpeakerBlocks,,,,3,1,1,3,32,8,Orig,3,TrialProc,0,8,-999999,24,334281,2,255,334536,StimList,9,3_9_con.wav,3,M,39,1,32,39KoreanPoliteness_F0_EQ,1,F,1,"<?xml version=""1.0""?>\n<Clock xmlns:dt=""urn:schemas-microsoft-com:datatypes""><Description dt:dt=""string"">E-Prime Primary Realtime Clock</Description><StartTime><Timestamp dt:dt=""int"">0</Timestamp><DateUtc dt:dt=""string"">2014-10-23T20:02:42Z</DateUtc></StartTime><FrequencyChanges><FrequencyChange><Frequency dt:dt=""r8"">2857431</Frequency><Timestamp dt:dt=""r8"">223275293464</Timestamp><Current dt:dt=""r8"">0</Current><DateUtc dt:dt=""string"">2014-10-23T20:02:42Z</DateUtc></FrequencyChange></FrequencyChanges></Clock>\n",59.944,1,-62433660,10/23/14,13:02:43,8:02:43 PM,2,2,1,2,Test,List1,1,,,,,,BlockProc,,,,,,,,,SpeakerBlocks,,,,3,1,1,3,33,8,Hi,5,TrialProc,0,8,-999999,13,337500,2,611,338111,StimList,2,16Perc_HiF0_3_2_con.wav,3,M,2,1,33,2KoreanPoliteness_F0_EQ,1,F,1,"<?xml version=""1.0""?>\n<Clock xmlns:dt=""urn:schemas-microsoft-com:datatypes""><Description dt:dt=""string"">E-Prime Primary Realtime Clock</Description><StartTime><Timestamp dt:dt=""int"">0</Timestamp><DateUtc dt:dt=""string"">2014-10-23T20:02:42Z</DateUtc></StartTime><FrequencyChanges><FrequencyChange><Frequency dt:dt=""r8"">2857431</Frequency><Timestamp dt:dt=""r8"">223275293464</Timestamp><Current dt:dt=""r8"">0</Current><DateUtc dt:dt=""string"">2014-10-23T20:02:42Z</DateUtc></FrequencyChange></FrequencyChanges></Clock>\n",59.944,1,-62433660,10/23/14,13:02:43,8:02:43 PM,2,2,1,2,Test,List1,1,,,,,,BlockProc,,,,,,,,,SpeakerBlocks,,,,3,1,1,3,34,8,Hi,5,TrialProc,0,8,-999999,21,341588,2,563,342151,StimList,5,16Perc_HiF0_3_5_con.wav,3,M,4,1,34,4KoreanPoliteness_F0_EQ,1,F,1,"<?xml version=""1.0""?>\n<Clock xmlns:dt=""urn:schemas-microsoft-com:datatypes""><Description dt:dt=""string"">E-Prime Primary Realtime Clock</Description><StartTime><Timestamp dt:dt=""int"">0</Timestamp><DateUtc dt:dt=""string"">2014-10-23T20:02:42Z</DateUtc></StartTime><FrequencyChanges><FrequencyChange><Frequency dt:dt=""r8"">2857431</Frequency><Timestamp dt:dt=""r8"">223275293464</Timestamp><Current dt:dt=""r8"">0</Current><DateUtc dt:dt=""string"">2014-10-23T20:02:42Z</DateUtc></FrequencyChange></FrequencyChanges></Clock>\n",59.944,1,-62433660,10/23/14,13:02:43,8:02:43 PM,2,2,1,2,Test,List1,1,,,,,,BlockProc,,,,,,,,,SpeakerBlocks,,,,3,1,1,3,35,8,Hi,5,TrialProc,1,8,-999999,21,345108,8,571,345679,StimList,4,16Perc_HiF0_3_4_con.wav,3,M,3,1,35,3KoreanPoliteness_F0_EQ,1,F,1,"<?xml version=""1.0""?>\n<Clock xmlns:dt=""urn:schemas-microsoft-com:datatypes""><Description dt:dt=""string"">E-Prime Primary Realtime Clock</Description><StartTime><Timestamp dt:dt=""int"">0</Timestamp><DateUtc dt:dt=""string"">2014-10-23T20:02:42Z</DateUtc></StartTime><FrequencyChanges><FrequencyChange><Frequency dt:dt=""r8"">2857431</Frequency><Timestamp dt:dt=""r8"">223275293464</Timestamp><Current dt:dt=""r8"">0</Current><DateUtc dt:dt=""string"">2014-10-23T20:02:42Z</DateUtc></FrequencyChange></FrequencyChanges></Clock>\n",59.944,1,-62433660,10/23/14,13:02:43,8:02:43 PM,2,2,1,2,Test,List1,1,,,,,,BlockProc,,,,,,,,,SpeakerBlocks,,,,3,1,1,3,36,8,MidHi,4,TrialProc,1,8,-999999,11,348828,8,1059,349887,StimList,6,08Perc_HiF0_3_6_con.wav,3,M,13,1,36,13KoreanPoliteness_F0_EQ,1,F,1,"<?xml version=""1.0""?>\n<Clock xmlns:dt=""urn:schemas-microsoft-com:datatypes""><Description dt:dt=""string"">E-Prime Primary Realtime Clock</Description><StartTime><Timestamp dt:dt=""int"">0</Timestamp><DateUtc dt:dt=""string"">2014-10-23T20:02:42Z</DateUtc></StartTime><FrequencyChanges><FrequencyChange><Frequency dt:dt=""r8"">2857431</Frequency><Timestamp dt:dt=""r8"">223275293464</Timestamp><Current dt:dt=""r8"">0</Current><DateUtc dt:dt=""string"">2014-10-23T20:02:42Z</DateUtc></FrequencyChange></FrequencyChanges></Clock>\n",59.944,1,-62433660,10/23/14,13:02:43,8:02:43 PM,2,2,1,2,Test,List1,1,,,,,,BlockProc,,,,,,,,,SpeakerBlocks,,,,3,1,1,3,37,8,MidHi,4,TrialProc,0,8,-999999,14,352931,2,484,353415,StimList,9,08Perc_HiF0_3_9_con.wav,3,M,15,1,37,15KoreanPoliteness_F0_EQ,1,F,1,"<?xml version=""1.0""?>\n<Clock xmlns:dt=""urn:schemas-microsoft-com:datatypes""><Description dt:dt=""string"">E-Prime Primary Realtime Clock</Description><StartTime><Timestamp dt:dt=""int"">0</Timestamp><DateUtc dt:dt=""string"">2014-10-23T20:02:42Z</DateUtc></StartTime><FrequencyChanges><FrequencyChange><Frequency dt:dt=""r8"">2857431</Frequency><Timestamp dt:dt=""r8"">223275293464</Timestamp><Current dt:dt=""r8"">0</Current><DateUtc dt:dt=""string"">2014-10-23T20:02:42Z</DateUtc></FrequencyChange></FrequencyChanges></Clock>\n",59.944,1,-62433660,10/23/14,13:02:43,8:02:43 PM,2,2,1,2,Test,List1,1,,,,,,BlockProc,,,,,,,,,SpeakerBlocks,,,,3,1,1,3,38,8,Orig,3,TrialProc,1,8,-999999,14,356401,8,286,356687,StimList,2,3_2_con.wav,3,M,34,1,38,34KoreanPoliteness_F0_EQ,1,F,1,"<?xml version=""1.0""?>\n<Clock xmlns:dt=""urn:schemas-microsoft-com:datatypes""><Description dt:dt=""string"">E-Prime Primary Realtime Clock</Description><StartTime><Timestamp dt:dt=""int"">0</Timestamp><DateUtc dt:dt=""string"">2014-10-23T20:02:42Z</DateUtc></StartTime><FrequencyChanges><FrequencyChange><Frequency dt:dt=""r8"">2857431</Frequency><Timestamp dt:dt=""r8"">223275293464</Timestamp><Current dt:dt=""r8"">0</Current><DateUtc dt:dt=""string"">2014-10-23T20:02:42Z</DateUtc></FrequencyChange></FrequencyChanges></Clock>\n",59.944,1,-62433660,10/23/14,13:02:43,8:02:43 PM,2,2,1,2,Test,List1,1,,,,,,BlockProc,,,,,,,,,SpeakerBlocks,,,,3,1,1,3,39,8,Hi,5,TrialProc,1,8,-999999,24,359521,8,398,359919,StimList,10,16Perc_HiF0_3_10_con.wav,3,M,8,1,39,8KoreanPoliteness_F0_EQ,1,F,1,"<?xml version=""1.0""?>\n<Clock xmlns:dt=""urn:schemas-microsoft-com:datatypes""><Description dt:dt=""string"">E-Prime Primary Realtime Clock</Description><StartTime><Timestamp dt:dt=""int"">0</Timestamp><DateUtc dt:dt=""string"">2014-10-23T20:02:42Z</DateUtc></StartTime><FrequencyChanges><FrequencyChange><Frequency dt:dt=""r8"">2857431</Frequency><Timestamp dt:dt=""r8"">223275293464</Timestamp><Current dt:dt=""r8"">0</Current><DateUtc dt:dt=""string"">2014-10-23T20:02:42Z</DateUtc></FrequencyChange></FrequencyChanges></Clock>\n",59.944,1,-62433660,10/23/14,13:02:43,8:02:43 PM,2,2,1,2,Test,List1,1,,,,,,BlockProc,,,,,,,,,SpeakerBlocks,,,,3,1,1,3,40,8,Orig,3,TrialProc,1,8,-999999,12,363058,8,605,363663,StimList,6,3_6_con.wav,3,M,37,1,40,37KoreanPoliteness_F0_EQ,1,F,1,"<?xml version=""1.0""?>\n<Clock xmlns:dt=""urn:schemas-microsoft-com:datatypes""><Description dt:dt=""string"">E-Prime Primary Realtime Clock</Description><StartTime><Timestamp dt:dt=""int"">0</Timestamp><DateUtc dt:dt=""string"">2014-10-23T20:02:42Z</DateUtc></StartTime><FrequencyChanges><FrequencyChange><Frequency dt:dt=""r8"">2857431</Frequency><Timestamp dt:dt=""r8"">223275293464</Timestamp><Current dt:dt=""r8"">0</Current><DateUtc dt:dt=""string"">2014-10-23T20:02:42Z</DateUtc></FrequencyChange></FrequencyChanges></Clock>\n",59.944,1,-62433660,10/23/14,13:02:43,8:02:43 PM,2,2,1,2,Test,List1,2,,,,,,BlockProc,,,,,,,,,SpeakerBlocks,,,,8,1,2,8,1,8,Lo,1,TrialProc,1,8,-999999,23,371899,8,1452,373351,StimList,9,16Perc_LoF0_8_9_con.wav,8,M,31,2,41,31KoreanPoliteness_F0_EQ,1,F,1,"<?xml version=""1.0""?>\n<Clock xmlns:dt=""urn:schemas-microsoft-com:datatypes""><Description dt:dt=""string"">E-Prime Primary Realtime Clock</Description><StartTime><Timestamp dt:dt=""int"">0</Timestamp><DateUtc dt:dt=""string"">2014-10-23T20:02:42Z</DateUtc></StartTime><FrequencyChanges><FrequencyChange><Frequency dt:dt=""r8"">2857431</Frequency><Timestamp dt:dt=""r8"">223275293464</Timestamp><Current dt:dt=""r8"">0</Current><DateUtc dt:dt=""string"">2014-10-23T20:02:42Z</DateUtc></FrequencyChange></FrequencyChanges></Clock>\n",59.944,1,-62433660,10/23/14,13:02:43,8:02:43 PM,2,2,1,2,Test,List1,2,,,,,,BlockProc,,,,,,,,,SpeakerBlocks,,,,8,1,2,8,2,8,Hi,5,TrialProc,0,8,-999999,27,376153,2,550,376703,StimList,2,16Perc_HiF0_8_2_con.wav,8,M,2,2,42,2KoreanPoliteness_F0_EQ,1,F,1,"<?xml version=""1.0""?>\n<Clock xmlns:dt=""urn:schemas-microsoft-com:datatypes""><Description dt:dt=""string"">E-Prime Primary Realtime Clock</Description><StartTime><Timestamp dt:dt=""int"">0</Timestamp><DateUtc dt:dt=""string"">2014-10-23T20:02:42Z</DateUtc></StartTime><FrequencyChanges><FrequencyChange><Frequency dt:dt=""r8"">2857431</Frequency><Timestamp dt:dt=""r8"">223275293464</Timestamp><Current dt:dt=""r8"">0</Current><DateUtc dt:dt=""string"">2014-10-23T20:02:42Z</DateUtc></FrequencyChange></FrequencyChanges></Clock>\n",59.944,1,-62433660,10/23/14,13:02:43,8:02:43 PM,2,2,1,2,Test,List1,2,,,,,,BlockProc,,,,,,,,,SpeakerBlocks,,,,8,1,2,8,3,8,Lo,1,TrialProc,0,8,-999999,20,379356,2,611,379967,StimList,10,16Perc_LoF0_8_10_con.wav,8,M,32,2,43,32KoreanPoliteness_F0_EQ,1,F,1,"<?xml version=""1.0""?>\n<Clock xmlns:dt=""urn:schemas-microsoft-com:datatypes""><Description dt:dt=""string"">E-Prime Primary Realtime Clock</Description><StartTime><Timestamp dt:dt=""int"">0</Timestamp><DateUtc dt:dt=""string"">2014-10-23T20:02:42Z</DateUtc></StartTime><FrequencyChanges><FrequencyChange><Frequency dt:dt=""r8"">2857431</Frequency><Timestamp dt:dt=""r8"">223275293464</Timestamp><Current dt:dt=""r8"">0</Current><DateUtc dt:dt=""string"">2014-10-23T20:02:42Z</DateUtc></FrequencyChange></FrequencyChanges></Clock>\n",59.944,1,-62433660,10/23/14,13:02:43,8:02:43 PM,2,2,1,2,Test,List1,2,,,,,,BlockProc,,,,,,,,,SpeakerBlocks,,,,8,1,2,8,4,8,MidLo,2,TrialProc,0,8,-999999,27,383143,2,544,383687,StimList,5,08Perc_LoF0_8_5_con.wav,8,M,20,2,44,20KoreanPoliteness_F0_EQ,1,F,1,"<?xml version=""1.0""?>\n<Clock xmlns:dt=""urn:schemas-microsoft-com:datatypes""><Description dt:dt=""string"">E-Prime Primary Realtime Clock</Description><StartTime><Timestamp dt:dt=""int"">0</Timestamp><DateUtc dt:dt=""string"">2014-10-23T20:02:42Z</DateUtc></StartTime><FrequencyChanges><FrequencyChange><Frequency dt:dt=""r8"">2857431</Frequency><Timestamp dt:dt=""r8"">223275293464</Timestamp><Current dt:dt=""r8"">0</Current><DateUtc dt:dt=""string"">2014-10-23T20:02:42Z</DateUtc></FrequencyChange></FrequencyChanges></Clock>\n",59.944,1,-62433660,10/23/14,13:02:43,8:02:43 PM,2,2,1,2,Test,List1,2,,,,,,BlockProc,,,,,,,,,SpeakerBlocks,,,,8,1,2,8,5,8,Hi,5,TrialProc,1,8,-999999,13,386780,8,859,387639,StimList,4,16Perc_HiF0_8_4_con.wav,8,M,3,2,45,3KoreanPoliteness_F0_EQ,1,F,1,"<?xml version=""1.0""?>\n<Clock xmlns:dt=""urn:schemas-microsoft-com:datatypes""><Description dt:dt=""string"">E-Prime Primary Realtime Clock</Description><StartTime><Timestamp dt:dt=""int"">0</Timestamp><DateUtc dt:dt=""string"">2014-10-23T20:02:42Z</DateUtc></StartTime><FrequencyChanges><FrequencyChange><Frequency dt:dt=""r8"">2857431</Frequency><Timestamp dt:dt=""r8"">223275293464</Timestamp><Current dt:dt=""r8"">0</Current><DateUtc dt:dt=""string"">2014-10-23T20:02:42Z</DateUtc></FrequencyChange></FrequencyChanges></Clock>\n",59.944,1,-62433660,10/23/14,13:02:43,8:02:43 PM,2,2,1,2,Test,List1,2,,,,,,BlockProc,,,,,,,,,SpeakerBlocks,,,,8,1,2,8,6,8,MidLo,2,TrialProc,0,8,-999999,16,390283,2,692,390975,StimList,10,08Perc_LoF0_8_10_con.wav,8,M,24,2,46,24KoreanPoliteness_F0_EQ,1,F,1,"<?xml version=""1.0""?>\n<Clock xmlns:dt=""urn:schemas-microsoft-com:datatypes""><Description dt:dt=""string"">E-Prime Primary Realtime Clock</Description><StartTime><Timestamp dt:dt=""int"">0</Timestamp><DateUtc dt:dt=""string"">2014-10-23T20:02:42Z</DateUtc></StartTime><FrequencyChanges><FrequencyChange><Frequency dt:dt=""r8"">2857431</Frequency><Timestamp dt:dt=""r8"">223275293464</Timestamp><Current dt:dt=""r8"">0</Current><DateUtc dt:dt=""string"">2014-10-23T20:02:42Z</DateUtc></FrequencyChange></FrequencyChanges></Clock>\n",59.944,1,-62433660,10/23/14,13:02:43,8:02:43 PM,2,2,1,2,Test,List1,2,,,,,,BlockProc,,,,,,,,,SpeakerBlocks,,,,8,1,2,8,7,8,Hi,5,TrialProc,0,8,0,23,394120,,0,0,StimList,5,16Perc_HiF0_8_5_con.wav,8,M,4,2,47,4KoreanPoliteness_F0_EQ,1,F,1,"<?xml version=""1.0""?>\n<Clock xmlns:dt=""urn:schemas-microsoft-com:datatypes""><Description dt:dt=""string"">E-Prime Primary Realtime Clock</Description><StartTime><Timestamp dt:dt=""int"">0</Timestamp><DateUtc dt:dt=""string"">2014-10-23T20:02:42Z</DateUtc></StartTime><FrequencyChanges><FrequencyChange><Frequency dt:dt=""r8"">2857431</Frequency><Timestamp dt:dt=""r8"">223275293464</Timestamp><Current dt:dt=""r8"">0</Current><DateUtc dt:dt=""string"">2014-10-23T20:02:42Z</DateUtc></FrequencyChange></FrequencyChanges></Clock>\n",59.944,1,-62433660,10/23/14,13:02:43,8:02:43 PM,2,2,1,2,Test,List1,2,,,,,,BlockProc,,,,,,,,,SpeakerBlocks,,,,8,1,2,8,8,8,MidLo,2,TrialProc,0,8,-999999,18,399875,2,788,400663,StimList,2,08Perc_LoF0_8_2_con.wav,8,M,18,2,48,18KoreanPoliteness_F0_EQ,1,F,1,"<?xml version=""1.0""?>\n<Clock xmlns:dt=""urn:schemas-microsoft-com:datatypes""><Description dt:dt=""string"">E-Prime Primary Realtime Clock</Description><StartTime><Timestamp dt:dt=""int"">0</Timestamp><DateUtc dt:dt=""string"">2014-10-23T20:02:42Z</DateUtc></StartTime><FrequencyChanges><FrequencyChange><Frequency dt:dt=""r8"">2857431</Frequency><Timestamp dt:dt=""r8"">223275293464</Timestamp><Current dt:dt=""r8"">0</Current><DateUtc dt:dt=""string"">2014-10-23T20:02:42Z</DateUtc></FrequencyChange></FrequencyChanges></Clock>\n",59.944,1,-62433660,10/23/14,13:02:43,8:02:43 PM,2,2,1,2,Test,List1,2,,,,,,BlockProc,,,,,,,,,SpeakerBlocks,,,,8,1,2,8,9,8,MidHi,4,TrialProc,1,8,-999999,19,403545,8,110,403655,StimList,7,08Perc_HiF0_8_7_con.wav,8,M,14,2,49,14KoreanPoliteness_F0_EQ,1,F,1,"<?xml version=""1.0""?>\n<Clock xmlns:dt=""urn:schemas-microsoft-com:datatypes""><Description dt:dt=""string"">E-Prime Primary Realtime Clock</Description><StartTime><Timestamp dt:dt=""int"">0</Timestamp><DateUtc dt:dt=""string"">2014-10-23T20:02:42Z</DateUtc></StartTime><FrequencyChanges><FrequencyChange><Frequency dt:dt=""r8"">2857431</Frequency><Timestamp dt:dt=""r8"">223275293464</Timestamp><Current dt:dt=""r8"">0</Current><DateUtc dt:dt=""string"">2014-10-23T20:02:42Z</DateUtc></FrequencyChange></FrequencyChanges></Clock>\n",59.944,1,-62433660,10/23/14,13:02:43,8:02:43 PM,2,2,1,2,Test,List1,2,,,,,,BlockProc,,,,,,,,,SpeakerBlocks,,,,8,1,2,8,10,8,Orig,3,TrialProc,0,8,-999999,26,406832,2,399,407231,StimList,5,8_5_con.wav,8,M,36,2,50,36KoreanPoliteness_F0_EQ,1,F,1,"<?xml version=""1.0""?>\n<Clock xmlns:dt=""urn:schemas-microsoft-com:datatypes""><Description dt:dt=""string"">E-Prime Primary Realtime Clock</Description><StartTime><Timestamp dt:dt=""int"">0</Timestamp><DateUtc dt:dt=""string"">2014-10-23T20:02:42Z</DateUtc></StartTime><FrequencyChanges><FrequencyChange><Frequency dt:dt=""r8"">2857431</Frequency><Timestamp dt:dt=""r8"">223275293464</Timestamp><Current dt:dt=""r8"">0</Current><DateUtc dt:dt=""string"">2014-10-23T20:02:42Z</DateUtc></FrequencyChange></FrequencyChanges></Clock>\n",59.944,1,-62433660,10/23/14,13:02:43,8:02:43 PM,2,2,1,2,Test,List1,2,,,,,,BlockProc,,,,,,,,,SpeakerBlocks,,,,8,1,2,8,11,8,MidHi,4,TrialProc,1,8,-999999,12,410368,8,511,410879,StimList,4,08Perc_HiF0_8_4_con.wav,8,M,11,2,51,11KoreanPoliteness_F0_EQ,1,F,1,"<?xml version=""1.0""?>\n<Clock xmlns:dt=""urn:schemas-microsoft-com:datatypes""><Description dt:dt=""string"">E-Prime Primary Realtime Clock</Description><StartTime><Timestamp dt:dt=""int"">0</Timestamp><DateUtc dt:dt=""string"">2014-10-23T20:02:42Z</DateUtc></StartTime><FrequencyChanges><FrequencyChange><Frequency dt:dt=""r8"">2857431</Frequency><Timestamp dt:dt=""r8"">223275293464</Timestamp><Current dt:dt=""r8"">0</Current><DateUtc dt:dt=""string"">2014-10-23T20:02:42Z</DateUtc></FrequencyChange></FrequencyChanges></Clock>\n",59.944,1,-62433660,10/23/14,13:02:43,8:02:43 PM,2,2,1,2,Test,List1,2,,,,,,BlockProc,,,,,,,,,SpeakerBlocks,,,,8,1,2,8,12,8,MidHi,4,TrialProc,1,8,-999999,22,413688,8,271,413959,StimList,2,08Perc_HiF0_8_2_con.wav,8,M,10,2,52,10KoreanPoliteness_F0_EQ,1,F,1,"<?xml version=""1.0""?>\n<Clock xmlns:dt=""urn:schemas-microsoft-com:datatypes""><Description dt:dt=""string"">E-Prime Primary Realtime Clock</Description><StartTime><Timestamp dt:dt=""int"">0</Timestamp><DateUtc dt:dt=""string"">2014-10-23T20:02:42Z</DateUtc></StartTime><FrequencyChanges><FrequencyChange><Frequency dt:dt=""r8"">2857431</Frequency><Timestamp dt:dt=""r8"">223275293464</Timestamp><Current dt:dt=""r8"">0</Current><DateUtc dt:dt=""string"">2014-10-23T20:02:42Z</DateUtc></FrequencyChange></FrequencyChanges></Clock>\n",59.944,1,-62433660,10/23/14,13:02:43,8:02:43 PM,2,2,1,2,Test,List1,2,,,,,,BlockProc,,,,,,,,,SpeakerBlocks,,,,8,1,2,8,13,8,Orig,3,TrialProc,1,8,-999999,12,416808,8,327,417135,StimList,7,8_7_con.wav,8,M,38,2,53,38KoreanPoliteness_F0_EQ,1,F,1,"<?xml version=""1.0""?>\n<Clock xmlns:dt=""urn:schemas-microsoft-com:datatypes""><Description dt:dt=""string"">E-Prime Primary Realtime Clock</Description><StartTime><Timestamp dt:dt=""int"">0</Timestamp><DateUtc dt:dt=""string"">2014-10-23T20:02:42Z</DateUtc></StartTime><FrequencyChanges><FrequencyChange><Frequency dt:dt=""r8"">2857431</Frequency><Timestamp dt:dt=""r8"">223275293464</Timestamp><Current dt:dt=""r8"">0</Current><DateUtc dt:dt=""string"">2014-10-23T20:02:42Z</DateUtc></FrequencyChange></FrequencyChanges></Clock>\n",59.944,1,-62433660,10/23/14,13:02:43,8:02:43 PM,2,2,1,2,Test,List1,2,,,,,,BlockProc,,,,,,,,,SpeakerBlocks,,,,8,1,2,8,14,8,MidHi,4,TrialProc,1,8,-999999,21,419877,8,138,420015,StimList,9,08Perc_HiF0_8_9_con.wav,8,M,15,2,54,15KoreanPoliteness_F0_EQ,1,F,1,"<?xml version=""1.0""?>\n<Clock xmlns:dt=""urn:schemas-microsoft-com:datatypes""><Description dt:dt=""string"">E-Prime Primary Realtime Clock</Description><StartTime><Timestamp dt:dt=""int"">0</Timestamp><DateUtc dt:dt=""string"">2014-10-23T20:02:42Z</DateUtc></StartTime><FrequencyChanges><FrequencyChange><Frequency dt:dt=""r8"">2857431</Frequency><Timestamp dt:dt=""r8"">223275293464</Timestamp><Current dt:dt=""r8"">0</Current><DateUtc dt:dt=""string"">2014-10-23T20:02:42Z</DateUtc></FrequencyChange></FrequencyChanges></Clock>\n",59.944,1,-62433660,10/23/14,13:02:43,8:02:43 PM,2,2,1,2,Test,List1,2,,,,,,BlockProc,,,,,,,,,SpeakerBlocks,,,,8,1,2,8,15,8,MidLo,2,TrialProc,0,8,0,21,422747,,0,0,StimList,1,08Perc_LoF0_8_1_con.wav,8,M,17,2,55,17KoreanPoliteness_F0_EQ,1,F,1,"<?xml version=""1.0""?>\n<Clock xmlns:dt=""urn:schemas-microsoft-com:datatypes""><Description dt:dt=""string"">E-Prime Primary Realtime Clock</Description><StartTime><Timestamp dt:dt=""int"">0</Timestamp><DateUtc dt:dt=""string"">2014-10-23T20:02:42Z</DateUtc></StartTime><FrequencyChanges><FrequencyChange><Frequency dt:dt=""r8"">2857431</Frequency><Timestamp dt:dt=""r8"">223275293464</Timestamp><Current dt:dt=""r8"">0</Current><DateUtc dt:dt=""string"">2014-10-23T20:02:42Z</DateUtc></FrequencyChange></FrequencyChanges></Clock>\n",59.944,1,-62433660,10/23/14,13:02:43,8:02:43 PM,2,2,1,2,Test,List1,2,,,,,,BlockProc,,,,,,,,,SpeakerBlocks,,,,8,1,2,8,16,8,Orig,3,TrialProc,0,8,-999999,13,428769,2,478,429247,StimList,4,8_4_con.wav,8,M,35,2,56,35KoreanPoliteness_F0_EQ,1,F,1,"<?xml version=""1.0""?>\n<Clock xmlns:dt=""urn:schemas-microsoft-com:datatypes""><Description dt:dt=""string"">E-Prime Primary Realtime Clock</Description><StartTime><Timestamp dt:dt=""int"">0</Timestamp><DateUtc dt:dt=""string"">2014-10-23T20:02:42Z</DateUtc></StartTime><FrequencyChanges><FrequencyChange><Frequency dt:dt=""r8"">2857431</Frequency><Timestamp dt:dt=""r8"">223275293464</Timestamp><Current dt:dt=""r8"">0</Current><DateUtc dt:dt=""string"">2014-10-23T20:02:42Z</DateUtc></FrequencyChange></FrequencyChanges></Clock>\n",59.944,1,-62433660,10/23/14,13:02:43,8:02:43 PM,2,2,1,2,Test,List1,2,,,,,,BlockProc,,,,,,,,,SpeakerBlocks,,,,8,1,2,8,17,8,Hi,5,TrialProc,1,8,-999999,16,432122,8,253,432375,StimList,6,16Perc_HiF0_8_6_con.wav,8,M,5,2,57,5KoreanPoliteness_F0_EQ,1,F,1,"<?xml version=""1.0""?>\n<Clock xmlns:dt=""urn:schemas-microsoft-com:datatypes""><Description dt:dt=""string"">E-Prime Primary Realtime Clock</Description><StartTime><Timestamp dt:dt=""int"">0</Timestamp><DateUtc dt:dt=""string"">2014-10-23T20:02:42Z</DateUtc></StartTime><FrequencyChanges><FrequencyChange><Frequency dt:dt=""r8"">2857431</Frequency><Timestamp dt:dt=""r8"">223275293464</Timestamp><Current dt:dt=""r8"">0</Current><DateUtc dt:dt=""string"">2014-10-23T20:02:42Z</DateUtc></FrequencyChange></FrequencyChanges></Clock>\n",59.944,1,-62433660,10/23/14,13:02:43,8:02:43 PM,2,2,1,2,Test,List1,2,,,,,,BlockProc,,,,,,,,,SpeakerBlocks,,,,8,1,2,8,18,8,Orig,3,TrialProc,1,8,-999999,19,435025,8,590,435615,StimList,10,8_10_con.wav,8,M,40,2,58,40KoreanPoliteness_F0_EQ,1,F,1,"<?xml version=""1.0""?>\n<Clock xmlns:dt=""urn:schemas-microsoft-com:datatypes""><Description dt:dt=""string"">E-Prime Primary Realtime Clock</Description><StartTime><Timestamp dt:dt=""int"">0</Timestamp><DateUtc dt:dt=""string"">2014-10-23T20:02:42Z</DateUtc></StartTime><FrequencyChanges><FrequencyChange><Frequency dt:dt=""r8"">2857431</Frequency><Timestamp dt:dt=""r8"">223275293464</Timestamp><Current dt:dt=""r8"">0</Current><DateUtc dt:dt=""string"">2014-10-23T20:02:42Z</DateUtc></FrequencyChange></FrequencyChanges></Clock>\n",59.944,1,-62433660,10/23/14,13:02:43,8:02:43 PM,2,2,1,2,Test,List1,2,,,,,,BlockProc,,,,,,,,,SpeakerBlocks,,,,8,1,2,8,19,8,Hi,5,TrialProc,1,8,-999999,20,438345,8,382,438727,StimList,1,16Perc_HiF0_8_1_con.wav,8,M,1,2,59,1KoreanPoliteness_F0_EQ,1,F,1,"<?xml version=""1.0""?>\n<Clock xmlns:dt=""urn:schemas-microsoft-com:datatypes""><Description dt:dt=""string"">E-Prime Primary Realtime Clock</Description><StartTime><Timestamp dt:dt=""int"">0</Timestamp><DateUtc dt:dt=""string"">2014-10-23T20:02:42Z</DateUtc></StartTime><FrequencyChanges><FrequencyChange><Frequency dt:dt=""r8"">2857431</Frequency><Timestamp dt:dt=""r8"">223275293464</Timestamp><Current dt:dt=""r8"">0</Current><DateUtc dt:dt=""string"">2014-10-23T20:02:42Z</DateUtc></FrequencyChange></FrequencyChanges></Clock>\n",59.944,1,-62433660,10/23/14,13:02:43,8:02:43 PM,2,2,1,2,Test,List1,2,,,,,,BlockProc,,,,,,,,,SpeakerBlocks,,,,8,1,2,8,20,8,MidLo,2,TrialProc,0,8,-999999,12,441798,2,217,442015,StimList,4,08Perc_LoF0_8_4_con.wav,8,M,19,2,60,19KoreanPoliteness_F0_EQ,1,F,1,"<?xml version=""1.0""?>\n<Clock xmlns:dt=""urn:schemas-microsoft-com:datatypes""><Description dt:dt=""string"">E-Prime Primary Realtime Clock</Description><StartTime><Timestamp dt:dt=""int"">0</Timestamp><DateUtc dt:dt=""string"">2014-10-23T20:02:42Z</DateUtc></StartTime><FrequencyChanges><FrequencyChange><Frequency dt:dt=""r8"">2857431</Frequency><Timestamp dt:dt=""r8"">223275293464</Timestamp><Current dt:dt=""r8"">0</Current><DateUtc dt:dt=""string"">2014-10-23T20:02:42Z</DateUtc></FrequencyChange></FrequencyChanges></Clock>\n",59.944,1,-62433660,10/23/14,13:02:43,8:02:43 PM,2,2,1,2,Test,List1,2,,,,,,BlockProc,,,,,,,,,SpeakerBlocks,,,,8,1,2,8,21,8,MidHi,4,TrialProc,1,8,-999999,15,444801,8,493,445294,StimList,1,08Perc_HiF0_8_1_con.wav,8,M,9,2,61,9KoreanPoliteness_F0_EQ,1,F,1,"<?xml version=""1.0""?>\n<Clock xmlns:dt=""urn:schemas-microsoft-com:datatypes""><Description dt:dt=""string"">E-Prime Primary Realtime Clock</Description><StartTime><Timestamp dt:dt=""int"">0</Timestamp><DateUtc dt:dt=""string"">2014-10-23T20:02:42Z</DateUtc></StartTime><FrequencyChanges><FrequencyChange><Frequency dt:dt=""r8"">2857431</Frequency><Timestamp dt:dt=""r8"">223275293464</Timestamp><Current dt:dt=""r8"">0</Current><DateUtc dt:dt=""string"">2014-10-23T20:02:42Z</DateUtc></FrequencyChange></FrequencyChanges></Clock>\n",59.944,1,-62433660,10/23/14,13:02:43,8:02:43 PM,2,2,1,2,Test,List1,2,,,,,,BlockProc,,,,,,,,,SpeakerBlocks,,,,8,1,2,8,22,8,Lo,1,TrialProc,0,8,-999999,14,448170,2,532,448702,StimList,7,16Perc_LoF0_8_7_con.wav,8,M,30,2,62,30KoreanPoliteness_F0_EQ,1,F,1,"<?xml version=""1.0""?>\n<Clock xmlns:dt=""urn:schemas-microsoft-com:datatypes""><Description dt:dt=""string"">E-Prime Primary Realtime Clock</Description><StartTime><Timestamp dt:dt=""int"">0</Timestamp><DateUtc dt:dt=""string"">2014-10-23T20:02:42Z</DateUtc></StartTime><FrequencyChanges><FrequencyChange><Frequency dt:dt=""r8"">2857431</Frequency><Timestamp dt:dt=""r8"">223275293464</Timestamp><Current dt:dt=""r8"">0</Current><DateUtc dt:dt=""string"">2014-10-23T20:02:42Z</DateUtc></FrequencyChange></FrequencyChanges></Clock>\n",59.944,1,-62433660,10/23/14,13:02:43,8:02:43 PM,2,2,1,2,Test,List1,2,,,,,,BlockProc,,,,,,,,,SpeakerBlocks,,,,8,1,2,8,23,8,Lo,1,TrialProc,0,8,-999999,21,451457,2,670,452127,StimList,1,16Perc_LoF0_8_1_con.wav,8,M,25,2,63,25KoreanPoliteness_F0_EQ,1,F,1,"<?xml version=""1.0""?>\n<Clock xmlns:dt=""urn:schemas-microsoft-com:datatypes""><Description dt:dt=""string"">E-Prime Primary Realtime Clock</Description><StartTime><Timestamp dt:dt=""int"">0</Timestamp><DateUtc dt:dt=""string"">2014-10-23T20:02:42Z</DateUtc></StartTime><FrequencyChanges><FrequencyChange><Frequency dt:dt=""r8"">2857431</Frequency><Timestamp dt:dt=""r8"">223275293464</Timestamp><Current dt:dt=""r8"">0</Current><DateUtc dt:dt=""string"">2014-10-23T20:02:42Z</DateUtc></FrequencyChange></FrequencyChanges></Clock>\n",59.944,1,-62433660,10/23/14,13:02:43,8:02:43 PM,2,2,1,2,Test,List1,2,,,,,,BlockProc,,,,,,,,,SpeakerBlocks,,,,8,1,2,8,24,8,Orig,3,TrialProc,1,8,-999999,21,454877,8,385,455262,StimList,9,8_9_con.wav,8,M,39,2,64,39KoreanPoliteness_F0_EQ,1,F,1,"<?xml version=""1.0""?>\n<Clock xmlns:dt=""urn:schemas-microsoft-com:datatypes""><Description dt:dt=""string"">E-Prime Primary Realtime Clock</Description><StartTime><Timestamp dt:dt=""int"">0</Timestamp><DateUtc dt:dt=""string"">2014-10-23T20:02:42Z</DateUtc></StartTime><FrequencyChanges><FrequencyChange><Frequency dt:dt=""r8"">2857431</Frequency><Timestamp dt:dt=""r8"">223275293464</Timestamp><Current dt:dt=""r8"">0</Current><DateUtc dt:dt=""string"">2014-10-23T20:02:42Z</DateUtc></FrequencyChange></FrequencyChanges></Clock>\n",59.944,1,-62433660,10/23/14,13:02:43,8:02:43 PM,2,2,1,2,Test,List1,2,,,,,,BlockProc,,,,,,,,,SpeakerBlocks,,,,8,1,2,8,25,8,Hi,5,TrialProc,1,8,-999999,24,458030,8,104,458134,StimList,9,16Perc_HiF0_8_9_con.wav,8,M,7,2,65,7KoreanPoliteness_F0_EQ,1,F,1,"<?xml version=""1.0""?>\n<Clock xmlns:dt=""urn:schemas-microsoft-com:datatypes""><Description dt:dt=""string"">E-Prime Primary Realtime Clock</Description><StartTime><Timestamp dt:dt=""int"">0</Timestamp><DateUtc dt:dt=""string"">2014-10-23T20:02:42Z</DateUtc></StartTime><FrequencyChanges><FrequencyChange><Frequency dt:dt=""r8"">2857431</Frequency><Timestamp dt:dt=""r8"">223275293464</Timestamp><Current dt:dt=""r8"">0</Current><DateUtc dt:dt=""string"">2014-10-23T20:02:42Z</DateUtc></FrequencyChange></FrequencyChanges></Clock>\n",59.944,1,-62433660,10/23/14,13:02:43,8:02:43 PM,2,2,1,2,Test,List1,2,,,,,,BlockProc,,,,,,,,,SpeakerBlocks,,,,8,1,2,8,26,8,MidHi,4,TrialProc,0,8,-999999,13,461299,2,115,461414,StimList,5,08Perc_HiF0_8_5_con.wav,8,M,12,2,66,12KoreanPoliteness_F0_EQ,1,F,1,"<?xml version=""1.0""?>\n<Clock xmlns:dt=""urn:schemas-microsoft-com:datatypes""><Description dt:dt=""string"">E-Prime Primary Realtime Clock</Description><StartTime><Timestamp dt:dt=""int"">0</Timestamp><DateUtc dt:dt=""string"">2014-10-23T20:02:42Z</DateUtc></StartTime><FrequencyChanges><FrequencyChange><Frequency dt:dt=""r8"">2857431</Frequency><Timestamp dt:dt=""r8"">223275293464</Timestamp><Current dt:dt=""r8"">0</Current><DateUtc dt:dt=""string"">2014-10-23T20:02:42Z</DateUtc></FrequencyChange></FrequencyChanges></Clock>\n",59.944,1,-62433660,10/23/14,13:02:43,8:02:43 PM,2,2,1,2,Test,List1,2,,,,,,BlockProc,,,,,,,,,SpeakerBlocks,,,,8,1,2,8,27,8,MidLo,2,TrialProc,0,8,-999999,16,464152,2,278,464430,StimList,9,08Perc_LoF0_8_9_con.wav,8,M,23,2,67,23KoreanPoliteness_F0_EQ,1,F,1,"<?xml version=""1.0""?>\n<Clock xmlns:dt=""urn:schemas-microsoft-com:datatypes""><Description dt:dt=""string"">E-Prime Primary Realtime Clock</Description><StartTime><Timestamp dt:dt=""int"">0</Timestamp><DateUtc dt:dt=""string"">2014-10-23T20:02:42Z</DateUtc></StartTime><FrequencyChanges><FrequencyChange><Frequency dt:dt=""r8"">2857431</Frequency><Timestamp dt:dt=""r8"">223275293464</Timestamp><Current dt:dt=""r8"">0</Current><DateUtc dt:dt=""string"">2014-10-23T20:02:42Z</DateUtc></FrequencyChange></FrequencyChanges></Clock>\n",59.944,1,-62433660,10/23/14,13:02:43,8:02:43 PM,2,2,1,2,Test,List1,2,,,,,,BlockProc,,,,,,,,,SpeakerBlocks,,,,8,1,2,8,28,8,MidLo,2,TrialProc,0,8,-999999,16,467322,2,780,468102,StimList,6,08Perc_LoF0_8_6_con.wav,8,M,21,2,68,21KoreanPoliteness_F0_EQ,1,F,1,"<?xml version=""1.0""?>\n<Clock xmlns:dt=""urn:schemas-microsoft-com:datatypes""><Description dt:dt=""string"">E-Prime Primary Realtime Clock</Description><StartTime><Timestamp dt:dt=""int"">0</Timestamp><DateUtc dt:dt=""string"">2014-10-23T20:02:42Z</DateUtc></StartTime><FrequencyChanges><FrequencyChange><Frequency dt:dt=""r8"">2857431</Frequency><Timestamp dt:dt=""r8"">223275293464</Timestamp><Current dt:dt=""r8"">0</Current><DateUtc dt:dt=""string"">2014-10-23T20:02:42Z</DateUtc></FrequencyChange></FrequencyChanges></Clock>\n",59.944,1,-62433660,10/23/14,13:02:43,8:02:43 PM,2,2,1,2,Test,List1,2,,,,,,BlockProc,,,,,,,,,SpeakerBlocks,,,,8,1,2,8,29,8,Hi,5,TrialProc,1,8,-999999,17,470992,8,118,471110,StimList,7,16Perc_HiF0_8_7_con.wav,8,M,6,2,69,6KoreanPoliteness_F0_EQ,1,F,1,"<?xml version=""1.0""?>\n<Clock xmlns:dt=""urn:schemas-microsoft-com:datatypes""><Description dt:dt=""string"">E-Prime Primary Realtime Clock</Description><StartTime><Timestamp dt:dt=""int"">0</Timestamp><DateUtc dt:dt=""string"">2014-10-23T20:02:42Z</DateUtc></StartTime><FrequencyChanges><FrequencyChange><Frequency dt:dt=""r8"">2857431</Frequency><Timestamp dt:dt=""r8"">223275293464</Timestamp><Current dt:dt=""r8"">0</Current><DateUtc dt:dt=""string"">2014-10-23T20:02:42Z</DateUtc></FrequencyChange></FrequencyChanges></Clock>\n",59.944,1,-62433660,10/23/14,13:02:43,8:02:43 PM,2,2,1,2,Test,List1,2,,,,,,BlockProc,,,,,,,,,SpeakerBlocks,,,,8,1,2,8,30,8,Lo,1,TrialProc,0,8,-999999,13,473978,2,180,474158,StimList,6,16Perc_LoF0_8_6_con.wav,8,M,29,2,70,29KoreanPoliteness_F0_EQ,1,F,1,"<?xml version=""1.0""?>\n<Clock xmlns:dt=""urn:schemas-microsoft-com:datatypes""><Description dt:dt=""string"">E-Prime Primary Realtime Clock</Description><StartTime><Timestamp dt:dt=""int"">0</Timestamp><DateUtc dt:dt=""string"">2014-10-23T20:02:42Z</DateUtc></StartTime><FrequencyChanges><FrequencyChange><Frequency dt:dt=""r8"">2857431</Frequency><Timestamp dt:dt=""r8"">223275293464</Timestamp><Current dt:dt=""r8"">0</Current><DateUtc dt:dt=""string"">2014-10-23T20:02:42Z</DateUtc></FrequencyChange></FrequencyChanges></Clock>\n",59.944,1,-62433660,10/23/14,13:02:43,8:02:43 PM,2,2,1,2,Test,List1,2,,,,,,BlockProc,,,,,,,,,SpeakerBlocks,,,,8,1,2,8,31,8,Lo,1,TrialProc,1,8,-999999,26,476931,8,307,477238,StimList,2,16Perc_LoF0_8_2_con.wav,8,M,26,2,71,26KoreanPoliteness_F0_EQ,1,F,1,"<?xml version=""1.0""?>\n<Clock xmlns:dt=""urn:schemas-microsoft-com:datatypes""><Description dt:dt=""string"">E-Prime Primary Realtime Clock</Description><StartTime><Timestamp dt:dt=""int"">0</Timestamp><DateUtc dt:dt=""string"">2014-10-23T20:02:42Z</DateUtc></StartTime><FrequencyChanges><FrequencyChange><Frequency dt:dt=""r8"">2857431</Frequency><Timestamp dt:dt=""r8"">223275293464</Timestamp><Current dt:dt=""r8"">0</Current><DateUtc dt:dt=""string"">2014-10-23T20:02:42Z</DateUtc></FrequencyChange></FrequencyChanges></Clock>\n",59.944,1,-62433660,10/23/14,13:02:43,8:02:43 PM,2,2,1,2,Test,List1,2,,,,,,BlockProc,,,,,,,,,SpeakerBlocks,,,,8,1,2,8,32,8,Orig,3,TrialProc,1,8,-999999,12,480117,8,369,480486,StimList,6,8_6_con.wav,8,M,37,2,72,37KoreanPoliteness_F0_EQ,1,F,1,"<?xml version=""1.0""?>\n<Clock xmlns:dt=""urn:schemas-microsoft-com:datatypes""><Description dt:dt=""string"">E-Prime Primary Realtime Clock</Description><StartTime><Timestamp dt:dt=""int"">0</Timestamp><DateUtc dt:dt=""string"">2014-10-23T20:02:42Z</DateUtc></StartTime><FrequencyChanges><FrequencyChange><Frequency dt:dt=""r8"">2857431</Frequency><Timestamp dt:dt=""r8"">223275293464</Timestamp><Current dt:dt=""r8"">0</Current><DateUtc dt:dt=""string"">2014-10-23T20:02:42Z</DateUtc></FrequencyChange></FrequencyChanges></Clock>\n",59.944,1,-62433660,10/23/14,13:02:43,8:02:43 PM,2,2,1,2,Test,List1,2,,,,,,BlockProc,,,,,,,,,SpeakerBlocks,,,,8,1,2,8,33,8,Lo,1,TrialProc,1,8,-999999,15,483570,8,484,484054,StimList,4,16Perc_LoF0_8_4_con.wav,8,M,27,2,73,27KoreanPoliteness_F0_EQ,1,F,1,"<?xml version=""1.0""?>\n<Clock xmlns:dt=""urn:schemas-microsoft-com:datatypes""><Description dt:dt=""string"">E-Prime Primary Realtime Clock</Description><StartTime><Timestamp dt:dt=""int"">0</Timestamp><DateUtc dt:dt=""string"">2014-10-23T20:02:42Z</DateUtc></StartTime><FrequencyChanges><FrequencyChange><Frequency dt:dt=""r8"">2857431</Frequency><Timestamp dt:dt=""r8"">223275293464</Timestamp><Current dt:dt=""r8"">0</Current><DateUtc dt:dt=""string"">2014-10-23T20:02:42Z</DateUtc></FrequencyChange></FrequencyChanges></Clock>\n",59.944,1,-62433660,10/23/14,13:02:43,8:02:43 PM,2,2,1,2,Test,List1,2,,,,,,BlockProc,,,,,,,,,SpeakerBlocks,,,,8,1,2,8,34,8,Orig,3,TrialProc,1,8,-999999,18,486823,8,351,487174,StimList,2,8_2_con.wav,8,M,34,2,74,34KoreanPoliteness_F0_EQ,1,F,1,"<?xml version=""1.0""?>\n<Clock xmlns:dt=""urn:schemas-microsoft-com:datatypes""><Description dt:dt=""string"">E-Prime Primary Realtime Clock</Description><StartTime><Timestamp dt:dt=""int"">0</Timestamp><DateUtc dt:dt=""string"">2014-10-23T20:02:42Z</DateUtc></StartTime><FrequencyChanges><FrequencyChange><Frequency dt:dt=""r8"">2857431</Frequency><Timestamp dt:dt=""r8"">223275293464</Timestamp><Current dt:dt=""r8"">0</Current><DateUtc dt:dt=""string"">2014-10-23T20:02:42Z</DateUtc></FrequencyChange></FrequencyChanges></Clock>\n",59.944,1,-62433660,10/23/14,13:02:43,8:02:43 PM,2,2,1,2,Test,List1,2,,,,,,BlockProc,,,,,,,,,SpeakerBlocks,,,,8,1,2,8,35,8,MidLo,2,TrialProc,1,8,-999999,14,490060,8,498,490558,StimList,7,08Perc_LoF0_8_7_con.wav,8,M,22,2,75,22KoreanPoliteness_F0_EQ,1,F,1,"<?xml version=""1.0""?>\n<Clock xmlns:dt=""urn:schemas-microsoft-com:datatypes""><Description dt:dt=""string"">E-Prime Primary Realtime Clock</Description><StartTime><Timestamp dt:dt=""int"">0</Timestamp><DateUtc dt:dt=""string"">2014-10-23T20:02:42Z</DateUtc></StartTime><FrequencyChanges><FrequencyChange><Frequency dt:dt=""r8"">2857431</Frequency><Timestamp dt:dt=""r8"">223275293464</Timestamp><Current dt:dt=""r8"">0</Current><DateUtc dt:dt=""string"">2014-10-23T20:02:42Z</DateUtc></FrequencyChange></FrequencyChanges></Clock>\n",59.944,1,-62433660,10/23/14,13:02:43,8:02:43 PM,2,2,1,2,Test,List1,2,,,,,,BlockProc,,,,,,,,,SpeakerBlocks,,,,8,1,2,8,36,8,MidHi,4,TrialProc,1,8,-999999,16,493212,8,274,493486,StimList,10,08Perc_HiF0_8_10_con.wav,8,M,16,2,76,16KoreanPoliteness_F0_EQ,1,F,1,"<?xml version=""1.0""?>\n<Clock xmlns:dt=""urn:schemas-microsoft-com:datatypes""><Description dt:dt=""string"">E-Prime Primary Realtime Clock</Description><StartTime><Timestamp dt:dt=""int"">0</Timestamp><DateUtc dt:dt=""string"">2014-10-23T20:02:42Z</DateUtc></StartTime><FrequencyChanges><FrequencyChange><Frequency dt:dt=""r8"">2857431</Frequency><Timestamp dt:dt=""r8"">223275293464</Timestamp><Current dt:dt=""r8"">0</Current><DateUtc dt:dt=""string"">2014-10-23T20:02:42Z</DateUtc></FrequencyChange></FrequencyChanges></Clock>\n",59.944,1,-62433660,10/23/14,13:02:43,8:02:43 PM,2,2,1,2,Test,List1,2,,,,,,BlockProc,,,,,,,,,SpeakerBlocks,,,,8,1,2,8,37,8,Hi,5,TrialProc,1,8,-999999,19,496165,8,953,497118,StimList,10,16Perc_HiF0_8_10_con.wav,8,M,8,2,77,8KoreanPoliteness_F0_EQ,1,F,1,"<?xml version=""1.0""?>\n<Clock xmlns:dt=""urn:schemas-microsoft-com:datatypes""><Description dt:dt=""string"">E-Prime Primary Realtime Clock</Description><StartTime><Timestamp dt:dt=""int"">0</Timestamp><DateUtc dt:dt=""string"">2014-10-23T20:02:42Z</DateUtc></StartTime><FrequencyChanges><FrequencyChange><Frequency dt:dt=""r8"">2857431</Frequency><Timestamp dt:dt=""r8"">223275293464</Timestamp><Current dt:dt=""r8"">0</Current><DateUtc dt:dt=""string"">2014-10-23T20:02:42Z</DateUtc></FrequencyChange></FrequencyChanges></Clock>\n",59.944,1,-62433660,10/23/14,13:02:43,8:02:43 PM,2,2,1,2,Test,List1,2,,,,,,BlockProc,,,,,,,,,SpeakerBlocks,,,,8,1,2,8,38,8,Lo,1,TrialProc,0,8,-999999,23,500269,2,321,500590,StimList,5,16Perc_LoF0_8_5_con.wav,8,M,28,2,78,28KoreanPoliteness_F0_EQ,1,F,1,"<?xml version=""1.0""?>\n<Clock xmlns:dt=""urn:schemas-microsoft-com:datatypes""><Description dt:dt=""string"">E-Prime Primary Realtime Clock</Description><StartTime><Timestamp dt:dt=""int"">0</Timestamp><DateUtc dt:dt=""string"">2014-10-23T20:02:42Z</DateUtc></StartTime><FrequencyChanges><FrequencyChange><Frequency dt:dt=""r8"">2857431</Frequency><Timestamp dt:dt=""r8"">223275293464</Timestamp><Current dt:dt=""r8"">0</Current><DateUtc dt:dt=""string"">2014-10-23T20:02:42Z</DateUtc></FrequencyChange></FrequencyChanges></Clock>\n",59.944,1,-62433660,10/23/14,13:02:43,8:02:43 PM,2,2,1,2,Test,List1,2,,,,,,BlockProc,,,,,,,,,SpeakerBlocks,,,,8,1,2,8,39,8,MidHi,4,TrialProc,1,8,-999999,14,503489,8,1109,504598,StimList,6,08Perc_HiF0_8_6_con.wav,8,M,13,2,79,13KoreanPoliteness_F0_EQ,1,F,1,"<?xml version=""1.0""?>\n<Clock xmlns:dt=""urn:schemas-microsoft-com:datatypes""><Description dt:dt=""string"">E-Prime Primary Realtime Clock</Description><StartTime><Timestamp dt:dt=""int"">0</Timestamp><DateUtc dt:dt=""string"">2014-10-23T20:02:42Z</DateUtc></StartTime><FrequencyChanges><FrequencyChange><Frequency dt:dt=""r8"">2857431</Frequency><Timestamp dt:dt=""r8"">223275293464</Timestamp><Current dt:dt=""r8"">0</Current><DateUtc dt:dt=""string"">2014-10-23T20:02:42Z</DateUtc></FrequencyChange></FrequencyChanges></Clock>\n",59.944,1,-62433660,10/23/14,13:02:43,8:02:43 PM,2,2,1,2,Test,List1,2,,,,,,BlockProc,,,,,,,,,SpeakerBlocks,,,,8,1,2,8,40,8,Orig,3,TrialProc,0,8,-999999,24,507309,2,369,507678,StimList,1,8_1_con.wav,8,M,33,2,80,33KoreanPoliteness_F0_EQ,1,F,1,"<?xml version=""1.0""?>\n<Clock xmlns:dt=""urn:schemas-microsoft-com:datatypes""><Description dt:dt=""string"">E-Prime Primary Realtime Clock</Description><StartTime><Timestamp dt:dt=""int"">0</Timestamp><DateUtc dt:dt=""string"">2014-10-23T20:02:42Z</DateUtc></StartTime><FrequencyChanges><FrequencyChange><Frequency dt:dt=""r8"">2857431</Frequency><Timestamp dt:dt=""r8"">223275293464</Timestamp><Current dt:dt=""r8"">0</Current><DateUtc dt:dt=""string"">2014-10-23T20:02:42Z</DateUtc></FrequencyChange></FrequencyChanges></Clock>\n",59.944,1,-62433660,10/23/14,13:02:43,8:02:43 PM,2,2,1,2,Test,List1,3,,,,,,BlockProc,,,,,,,,,SpeakerBlocks,,,,6,1,3,6,1,8,Orig,3,TrialProc,1,8,-999999,18,514783,8,975,515758,StimList,6,6_6_con.wav,6,F,37,3,81,37KoreanPoliteness_F0_EQ,1,F,1,"<?xml version=""1.0""?>\n<Clock xmlns:dt=""urn:schemas-microsoft-com:datatypes""><Description dt:dt=""string"">E-Prime Primary Realtime Clock</Description><StartTime><Timestamp dt:dt=""int"">0</Timestamp><DateUtc dt:dt=""string"">2014-10-23T20:02:42Z</DateUtc></StartTime><FrequencyChanges><FrequencyChange><Frequency dt:dt=""r8"">2857431</Frequency><Timestamp dt:dt=""r8"">223275293464</Timestamp><Current dt:dt=""r8"">0</Current><DateUtc dt:dt=""string"">2014-10-23T20:02:42Z</DateUtc></FrequencyChange></FrequencyChanges></Clock>\n",59.944,1,-62433660,10/23/14,13:02:43,8:02:43 PM,2,2,1,2,Test,List1,3,,,,,,BlockProc,,,,,,,,,SpeakerBlocks,,,,6,1,3,6,2,8,Hi,5,TrialProc,0,8,-999999,22,518987,2,11,518998,StimList,10,16Perc_HiF0_6_10_con.wav,6,F,8,3,82,8KoreanPoliteness_F0_EQ,1,F,1,"<?xml version=""1.0""?>\n<Clock xmlns:dt=""urn:schemas-microsoft-com:datatypes""><Description dt:dt=""string"">E-Prime Primary Realtime Clock</Description><StartTime><Timestamp dt:dt=""int"">0</Timestamp><DateUtc dt:dt=""string"">2014-10-23T20:02:42Z</DateUtc></StartTime><FrequencyChanges><FrequencyChange><Frequency dt:dt=""r8"">2857431</Frequency><Timestamp dt:dt=""r8"">223275293464</Timestamp><Current dt:dt=""r8"">0</Current><DateUtc dt:dt=""string"">2014-10-23T20:02:42Z</DateUtc></FrequencyChange></FrequencyChanges></Clock>\n",59.944,1,-62433660,10/23/14,13:02:43,8:02:43 PM,2,2,1,2,Test,List1,3,,,,,,BlockProc,,,,,,,,,SpeakerBlocks,,,,6,1,3,6,3,8,MidHi,4,TrialProc,0,8,-999999,21,522306,2,588,522894,StimList,6,08Perc_HiF0_6_6_con.wav,6,F,13,3,83,13KoreanPoliteness_F0_EQ,1,F,1,"<?xml version=""1.0""?>\n<Clock xmlns:dt=""urn:schemas-microsoft-com:datatypes""><Description dt:dt=""string"">E-Prime Primary Realtime Clock</Description><StartTime><Timestamp dt:dt=""int"">0</Timestamp><DateUtc dt:dt=""string"">2014-10-23T20:02:42Z</DateUtc></StartTime><FrequencyChanges><FrequencyChange><Frequency dt:dt=""r8"">2857431</Frequency><Timestamp dt:dt=""r8"">223275293464</Timestamp><Current dt:dt=""r8"">0</Current><DateUtc dt:dt=""string"">2014-10-23T20:02:42Z</DateUtc></FrequencyChange></FrequencyChanges></Clock>\n",59.944,1,-62433660,10/23/14,13:02:43,8:02:43 PM,2,2,1,2,Test,List1,3,,,,,,BlockProc,,,,,,,,,SpeakerBlocks,,,,6,1,3,6,4,8,Lo,1,TrialProc,1,8,-999999,25,526160,8,974,527134,StimList,1,16Perc_LoF0_6_1_con.wav,6,F,25,3,84,25KoreanPoliteness_F0_EQ,1,F,1,"<?xml version=""1.0""?>\n<Clock xmlns:dt=""urn:schemas-microsoft-com:datatypes""><Description dt:dt=""string"">E-Prime Primary Realtime Clock</Description><StartTime><Timestamp dt:dt=""int"">0</Timestamp><DateUtc dt:dt=""string"">2014-10-23T20:02:42Z</DateUtc></StartTime><FrequencyChanges><FrequencyChange><Frequency dt:dt=""r8"">2857431</Frequency><Timestamp dt:dt=""r8"">223275293464</Timestamp><Current dt:dt=""r8"">0</Current><DateUtc dt:dt=""string"">2014-10-23T20:02:42Z</DateUtc></FrequencyChange></FrequencyChanges></Clock>\n",59.944,1,-62433660,10/23/14,13:02:43,8:02:43 PM,2,2,1,2,Test,List1,3,,,,,,BlockProc,,,,,,,,,SpeakerBlocks,,,,6,1,3,6,5,8,MidLo,2,TrialProc,0,8,-999999,23,531048,2,854,531902,StimList,5,08Perc_LoF0_6_5_con.wav,6,F,20,3,85,20KoreanPoliteness_F0_EQ,1,F,1,"<?xml version=""1.0""?>\n<Clock xmlns:dt=""urn:schemas-microsoft-com:datatypes""><Description dt:dt=""string"">E-Prime Primary Realtime Clock</Description><StartTime><Timestamp dt:dt=""int"">0</Timestamp><DateUtc dt:dt=""string"">2014-10-23T20:02:42Z</DateUtc></StartTime><FrequencyChanges><FrequencyChange><Frequency dt:dt=""r8"">2857431</Frequency><Timestamp dt:dt=""r8"">223275293464</Timestamp><Current dt:dt=""r8"">0</Current><DateUtc dt:dt=""string"">2014-10-23T20:02:42Z</DateUtc></FrequencyChange></FrequencyChanges></Clock>\n",59.944,1,-62433660,10/23/14,13:02:43,8:02:43 PM,2,2,1,2,Test,List1,3,,,,,,BlockProc,,,,,,,,,SpeakerBlocks,,,,6,1,3,6,6,8,Orig,3,TrialProc,1,8,-999999,14,535469,8,745,536214,StimList,7,6_7_con.wav,6,F,38,3,86,38KoreanPoliteness_F0_EQ,1,F,1,"<?xml version=""1.0""?>\n<Clock xmlns:dt=""urn:schemas-microsoft-com:datatypes""><Description dt:dt=""string"">E-Prime Primary Realtime Clock</Description><StartTime><Timestamp dt:dt=""int"">0</Timestamp><DateUtc dt:dt=""string"">2014-10-23T20:02:42Z</DateUtc></StartTime><FrequencyChanges><FrequencyChange><Frequency dt:dt=""r8"">2857431</Frequency><Timestamp dt:dt=""r8"">223275293464</Timestamp><Current dt:dt=""r8"">0</Current><DateUtc dt:dt=""string"">2014-10-23T20:02:42Z</DateUtc></FrequencyChange></FrequencyChanges></Clock>\n",59.944,1,-62433660,10/23/14,13:02:43,8:02:43 PM,2,2,1,2,Test,List1,3,,,,,,BlockProc,,,,,,,,,SpeakerBlocks,,,,6,1,3,6,7,8,MidHi,4,TrialProc,1,8,-999999,15,540240,8,750,540990,StimList,4,08Perc_HiF0_6_4_con.wav,6,F,11,3,87,11KoreanPoliteness_F0_EQ,1,F,1,"<?xml version=""1.0""?>\n<Clock xmlns:dt=""urn:schemas-microsoft-com:datatypes""><Description dt:dt=""string"">E-Prime Primary Realtime Clock</Description><StartTime><Timestamp dt:dt=""int"">0</Timestamp><DateUtc dt:dt=""string"">2014-10-23T20:02:42Z</DateUtc></StartTime><FrequencyChanges><FrequencyChange><Frequency dt:dt=""r8"">2857431</Frequency><Timestamp dt:dt=""r8"">223275293464</Timestamp><Current dt:dt=""r8"">0</Current><DateUtc dt:dt=""string"">2014-10-23T20:02:42Z</DateUtc></FrequencyChange></FrequencyChanges></Clock>\n",59.944,1,-62433660,10/23/14,13:02:43,8:02:43 PM,2,2,1,2,Test,List1,3,,,,,,BlockProc,,,,,,,,,SpeakerBlocks,,,,6,1,3,6,8,8,Hi,5,TrialProc,0,8,-999999,22,544277,2,1289,545566,StimList,1,16Perc_HiF0_6_1_con.wav,6,F,1,3,88,1KoreanPoliteness_F0_EQ,1,F,1,"<?xml version=""1.0""?>\n<Clock xmlns:dt=""urn:schemas-microsoft-com:datatypes""><Description dt:dt=""string"">E-Prime Primary Realtime Clock</Description><StartTime><Timestamp dt:dt=""int"">0</Timestamp><DateUtc dt:dt=""string"">2014-10-23T20:02:42Z</DateUtc></StartTime><FrequencyChanges><FrequencyChange><Frequency dt:dt=""r8"">2857431</Frequency><Timestamp dt:dt=""r8"">223275293464</Timestamp><Current dt:dt=""r8"">0</Current><DateUtc dt:dt=""string"">2014-10-23T20:02:42Z</DateUtc></FrequencyChange></FrequencyChanges></Clock>\n",59.944,1,-62433660,10/23/14,13:02:43,8:02:43 PM,2,2,1,2,Test,List1,3,,,,,,BlockProc,,,,,,,,,SpeakerBlocks,,,,6,1,3,6,9,8,MidLo,2,TrialProc,1,8,-999999,17,549582,8,640,550222,StimList,4,08Perc_LoF0_6_4_con.wav,6,F,19,3,89,19KoreanPoliteness_F0_EQ,1,F,1,"<?xml version=""1.0""?>\n<Clock xmlns:dt=""urn:schemas-microsoft-com:datatypes""><Description dt:dt=""string"">E-Prime Primary Realtime Clock</Description><StartTime><Timestamp dt:dt=""int"">0</Timestamp><DateUtc dt:dt=""string"">2014-10-23T20:02:42Z</DateUtc></StartTime><FrequencyChanges><FrequencyChange><Frequency dt:dt=""r8"">2857431</Frequency><Timestamp dt:dt=""r8"">223275293464</Timestamp><Current dt:dt=""r8"">0</Current><DateUtc dt:dt=""string"">2014-10-23T20:02:42Z</DateUtc></FrequencyChange></FrequencyChanges></Clock>\n",59.944,1,-62433660,10/23/14,13:02:43,8:02:43 PM,2,2,1,2,Test,List1,3,,,,,,BlockProc,,,,,,,,,SpeakerBlocks,,,,6,1,3,6,10,8,Lo,1,TrialProc,1,8,-999999,20,553485,8,272,553757,StimList,2,16Perc_LoF0_6_2_con.wav,6,F,26,3,90,26KoreanPoliteness_F0_EQ,1,F,1,"<?xml version=""1.0""?>\n<Clock xmlns:dt=""urn:schemas-microsoft-com:datatypes""><Description dt:dt=""string"">E-Prime Primary Realtime Clock</Description><StartTime><Timestamp dt:dt=""int"">0</Timestamp><DateUtc dt:dt=""string"">2014-10-23T20:02:42Z</DateUtc></StartTime><FrequencyChanges><FrequencyChange><Frequency dt:dt=""r8"">2857431</Frequency><Timestamp dt:dt=""r8"">223275293464</Timestamp><Current dt:dt=""r8"">0</Current><DateUtc dt:dt=""string"">2014-10-23T20:02:42Z</DateUtc></FrequencyChange></FrequencyChanges></Clock>\n",59.944,1,-62433660,10/23/14,13:02:43,8:02:43 PM,2,2,1,2,Test,List1,3,,,,,,BlockProc,,,,,,,,,SpeakerBlocks,,,,6,1,3,6,11,8,Orig,3,TrialProc,0,8,-999999,11,557606,2,191,557797,StimList,5,6_5_con.wav,6,F,36,3,91,36KoreanPoliteness_F0_EQ,1,F,1,"<?xml version=""1.0""?>\n<Clock xmlns:dt=""urn:schemas-microsoft-com:datatypes""><Description dt:dt=""string"">E-Prime Primary Realtime Clock</Description><StartTime><Timestamp dt:dt=""int"">0</Timestamp><DateUtc dt:dt=""string"">2014-10-23T20:02:42Z</DateUtc></StartTime><FrequencyChanges><FrequencyChange><Frequency dt:dt=""r8"">2857431</Frequency><Timestamp dt:dt=""r8"">223275293464</Timestamp><Current dt:dt=""r8"">0</Current><DateUtc dt:dt=""string"">2014-10-23T20:02:42Z</DateUtc></FrequencyChange></FrequencyChanges></Clock>\n",59.944,1,-62433660,10/23/14,13:02:43,8:02:43 PM,2,2,1,2,Test,List1,3,,,,,,BlockProc,,,,,,,,,SpeakerBlocks,,,,6,1,3,6,12,8,MidHi,4,TrialProc,0,8,-999999,17,560992,2,245,561237,StimList,10,08Perc_HiF0_6_10_con.wav,6,F,16,3,92,16KoreanPoliteness_F0_EQ,1,F,1,"<?xml version=""1.0""?>\n<Clock xmlns:dt=""urn:schemas-microsoft-com:datatypes""><Description dt:dt=""string"">E-Prime Primary Realtime Clock</Description><StartTime><Timestamp dt:dt=""int"">0</Timestamp><DateUtc dt:dt=""string"">2014-10-23T20:02:42Z</DateUtc></StartTime><FrequencyChanges><FrequencyChange><Frequency dt:dt=""r8"">2857431</Frequency><Timestamp dt:dt=""r8"">223275293464</Timestamp><Current dt:dt=""r8"">0</Current><DateUtc dt:dt=""string"">2014-10-23T20:02:42Z</DateUtc></FrequencyChange></FrequencyChanges></Clock>\n",59.944,1,-62433660,10/23/14,13:02:43,8:02:43 PM,2,2,1,2,Test,List1,3,,,,,,BlockProc,,,,,,,,,SpeakerBlocks,,,,6,1,3,6,13,8,Hi,5,TrialProc,0,8,-999999,24,564729,2,628,565357,StimList,9,16Perc_HiF0_6_9_con.wav,6,F,7,3,93,7KoreanPoliteness_F0_EQ,1,F,1,"<?xml version=""1.0""?>\n<Clock xmlns:dt=""urn:schemas-microsoft-com:datatypes""><Description dt:dt=""string"">E-Prime Primary Realtime Clock</Description><StartTime><Timestamp dt:dt=""int"">0</Timestamp><DateUtc dt:dt=""string"">2014-10-23T20:02:42Z</DateUtc></StartTime><FrequencyChanges><FrequencyChange><Frequency dt:dt=""r8"">2857431</Frequency><Timestamp dt:dt=""r8"">223275293464</Timestamp><Current dt:dt=""r8"">0</Current><DateUtc dt:dt=""string"">2014-10-23T20:02:42Z</DateUtc></FrequencyChange></FrequencyChanges></Clock>\n",59.944,1,-62433660,10/23/14,13:02:43,8:02:43 PM,2,2,1,2,Test,List1,3,,,,,,BlockProc,,,,,,,,,SpeakerBlocks,,,,6,1,3,6,14,8,Hi,5,TrialProc,1,8,-999999,26,568950,8,703,569653,StimList,7,16Perc_HiF0_6_7_con.wav,6,F,6,3,94,6KoreanPoliteness_F0_EQ,1,F,1,"<?xml version=""1.0""?>\n<Clock xmlns:dt=""urn:schemas-microsoft-com:datatypes""><Description dt:dt=""string"">E-Prime Primary Realtime Clock</Description><StartTime><Timestamp dt:dt=""int"">0</Timestamp><DateUtc dt:dt=""string"">2014-10-23T20:02:42Z</DateUtc></StartTime><FrequencyChanges><FrequencyChange><Frequency dt:dt=""r8"">2857431</Frequency><Timestamp dt:dt=""r8"">223275293464</Timestamp><Current dt:dt=""r8"">0</Current><DateUtc dt:dt=""string"">2014-10-23T20:02:42Z</DateUtc></FrequencyChange></FrequencyChanges></Clock>\n",59.944,1,-62433660,10/23/14,13:02:43,8:02:43 PM,2,2,1,2,Test,List1,3,,,,,,BlockProc,,,,,,,,,SpeakerBlocks,,,,6,1,3,6,15,8,MidLo,2,TrialProc,1,8,-999999,16,572970,8,707,573677,StimList,6,08Perc_LoF0_6_6_con.wav,6,F,21,3,95,21KoreanPoliteness_F0_EQ,1,F,1,"<?xml version=""1.0""?>\n<Clock xmlns:dt=""urn:schemas-microsoft-com:datatypes""><Description dt:dt=""string"">E-Prime Primary Realtime Clock</Description><StartTime><Timestamp dt:dt=""int"">0</Timestamp><DateUtc dt:dt=""string"">2014-10-23T20:02:42Z</DateUtc></StartTime><FrequencyChanges><FrequencyChange><Frequency dt:dt=""r8"">2857431</Frequency><Timestamp dt:dt=""r8"">223275293464</Timestamp><Current dt:dt=""r8"">0</Current><DateUtc dt:dt=""string"">2014-10-23T20:02:42Z</DateUtc></FrequencyChange></FrequencyChanges></Clock>\n",59.944,1,-62433660,10/23/14,13:02:43,8:02:43 PM,2,2,1,2,Test,List1,3,,,,,,BlockProc,,,,,,,,,SpeakerBlocks,,,,6,1,3,6,16,8,Lo,1,TrialProc,0,8,-999999,24,577558,2,319,577877,StimList,5,16Perc_LoF0_6_5_con.wav,6,F,28,3,96,28KoreanPoliteness_F0_EQ,1,F,1,"<?xml version=""1.0""?>\n<Clock xmlns:dt=""urn:schemas-microsoft-com:datatypes""><Description dt:dt=""string"">E-Prime Primary Realtime Clock</Description><StartTime><Timestamp dt:dt=""int"">0</Timestamp><DateUtc dt:dt=""string"">2014-10-23T20:02:42Z</DateUtc></StartTime><FrequencyChanges><FrequencyChange><Frequency dt:dt=""r8"">2857431</Frequency><Timestamp dt:dt=""r8"">223275293464</Timestamp><Current dt:dt=""r8"">0</Current><DateUtc dt:dt=""string"">2014-10-23T20:02:42Z</DateUtc></FrequencyChange></FrequencyChanges></Clock>\n",59.944,1,-62433660,10/23/14,13:02:43,8:02:43 PM,2,2,1,2,Test,List1,3,,,,,,BlockProc,,,,,,,,,SpeakerBlocks,,,,6,1,3,6,17,8,Orig,3,TrialProc,1,8,-999999,20,581895,8,686,582581,StimList,4,6_4_con.wav,6,F,35,3,97,35KoreanPoliteness_F0_EQ,1,F,1,"<?xml version=""1.0""?>\n<Clock xmlns:dt=""urn:schemas-microsoft-com:datatypes""><Description dt:dt=""string"">E-Prime Primary Realtime Clock</Description><StartTime><Timestamp dt:dt=""int"">0</Timestamp><DateUtc dt:dt=""string"">2014-10-23T20:02:42Z</DateUtc></StartTime><FrequencyChanges><FrequencyChange><Frequency dt:dt=""r8"">2857431</Frequency><Timestamp dt:dt=""r8"">223275293464</Timestamp><Current dt:dt=""r8"">0</Current><DateUtc dt:dt=""string"">2014-10-23T20:02:42Z</DateUtc></FrequencyChange></FrequencyChanges></Clock>\n",59.944,1,-62433660,10/23/14,13:02:43,8:02:43 PM,2,2,1,2,Test,List1,3,,,,,,BlockProc,,,,,,,,,SpeakerBlocks,,,,6,1,3,6,18,8,Orig,3,TrialProc,1,8,-999999,14,585849,8,324,586173,StimList,2,6_2_con.wav,6,F,34,3,98,34KoreanPoliteness_F0_EQ,1,F,1,"<?xml version=""1.0""?>\n<Clock xmlns:dt=""urn:schemas-microsoft-com:datatypes""><Description dt:dt=""string"">E-Prime Primary Realtime Clock</Description><StartTime><Timestamp dt:dt=""int"">0</Timestamp><DateUtc dt:dt=""string"">2014-10-23T20:02:42Z</DateUtc></StartTime><FrequencyChanges><FrequencyChange><Frequency dt:dt=""r8"">2857431</Frequency><Timestamp dt:dt=""r8"">223275293464</Timestamp><Current dt:dt=""r8"">0</Current><DateUtc dt:dt=""string"">2014-10-23T20:02:42Z</DateUtc></FrequencyChange></FrequencyChanges></Clock>\n",59.944,1,-62433660,10/23/14,13:02:43,8:02:43 PM,2,2,1,2,Test,List1,3,,,,,,BlockProc,,,,,,,,,SpeakerBlocks,,,,6,1,3,6,19,8,MidLo,2,TrialProc,0,8,-999999,11,589686,2,559,590245,StimList,9,08Perc_LoF0_6_9_con.wav,6,F,23,3,99,23KoreanPoliteness_F0_EQ,1,F,1,"<?xml version=""1.0""?>\n<Clock xmlns:dt=""urn:schemas-microsoft-com:datatypes""><Description dt:dt=""string"">E-Prime Primary Realtime Clock</Description><StartTime><Timestamp dt:dt=""int"">0</Timestamp><DateUtc dt:dt=""string"">2014-10-23T20:02:42Z</DateUtc></StartTime><FrequencyChanges><FrequencyChange><Frequency dt:dt=""r8"">2857431</Frequency><Timestamp dt:dt=""r8"">223275293464</Timestamp><Current dt:dt=""r8"">0</Current><DateUtc dt:dt=""string"">2014-10-23T20:02:42Z</DateUtc></FrequencyChange></FrequencyChanges></Clock>\n",59.944,1,-62433660,10/23/14,13:02:43,8:02:43 PM,2,2,1,2,Test,List1,3,,,,,,BlockProc,,,,,,,,,SpeakerBlocks,,,,6,1,3,6,20,8,Lo,1,TrialProc,0,8,-999999,14,593439,2,454,593893,StimList,10,16Perc_LoF0_6_10_con.wav,6,F,32,3,100,32KoreanPoliteness_F0_EQ,1,F,1,"<?xml version=""1.0""?>\n<Clock xmlns:dt=""urn:schemas-microsoft-com:datatypes""><Description dt:dt=""string"">E-Prime Primary Realtime Clock</Description><StartTime><Timestamp dt:dt=""int"">0</Timestamp><DateUtc dt:dt=""string"">2014-10-23T20:02:42Z</DateUtc></StartTime><FrequencyChanges><FrequencyChange><Frequency dt:dt=""r8"">2857431</Frequency><Timestamp dt:dt=""r8"">223275293464</Timestamp><Current dt:dt=""r8"">0</Current><DateUtc dt:dt=""string"">2014-10-23T20:02:42Z</DateUtc></FrequencyChange></FrequencyChanges></Clock>\n",59.944,1,-62433660,10/23/14,13:02:43,8:02:43 PM,2,2,1,2,Test,List1,3,,,,,,BlockProc,,,,,,,,,SpeakerBlocks,,,,6,1,3,6,21,8,Hi,5,TrialProc,0,8,-999999,15,597210,2,611,597821,StimList,6,16Perc_HiF0_6_6_con.wav,6,F,5,3,101,5KoreanPoliteness_F0_EQ,1,F,1,"<?xml version=""1.0""?>\n<Clock xmlns:dt=""urn:schemas-microsoft-com:datatypes""><Description dt:dt=""string"">E-Prime Primary Realtime Clock</Description><StartTime><Timestamp dt:dt=""int"">0</Timestamp><DateUtc dt:dt=""string"">2014-10-23T20:02:42Z</DateUtc></StartTime><FrequencyChanges><FrequencyChange><Frequency dt:dt=""r8"">2857431</Frequency><Timestamp dt:dt=""r8"">223275293464</Timestamp><Current dt:dt=""r8"">0</Current><DateUtc dt:dt=""string"">2014-10-23T20:02:42Z</DateUtc></FrequencyChange></FrequencyChanges></Clock>\n",59.944,1,-62433660,10/23/14,13:02:43,8:02:43 PM,2,2,1,2,Test,List1,3,,,,,,BlockProc,,,,,,,,,SpeakerBlocks,,,,6,1,3,6,22,8,MidHi,4,TrialProc,1,8,-999999,16,601430,8,599,602029,StimList,7,08Perc_HiF0_6_7_con.wav,6,F,14,3,102,14KoreanPoliteness_F0_EQ,1,F,1,"<?xml version=""1.0""?>\n<Clock xmlns:dt=""urn:schemas-microsoft-com:datatypes""><Description dt:dt=""string"">E-Prime Primary Realtime Clock</Description><StartTime><Timestamp dt:dt=""int"">0</Timestamp><DateUtc dt:dt=""string"">2014-10-23T20:02:42Z</DateUtc></StartTime><FrequencyChanges><FrequencyChange><Frequency dt:dt=""r8"">2857431</Frequency><Timestamp dt:dt=""r8"">223275293464</Timestamp><Current dt:dt=""r8"">0</Current><DateUtc dt:dt=""string"">2014-10-23T20:02:42Z</DateUtc></FrequencyChange></FrequencyChanges></Clock>\n",59.944,1,-62433660,10/23/14,13:02:43,8:02:43 PM,2,2,1,2,Test,List1,3,,,,,,BlockProc,,,,,,,,,SpeakerBlocks,,,,6,1,3,6,23,8,Orig,3,TrialProc,1,8,-999999,13,605517,8,600,606117,StimList,9,6_9_con.wav,6,F,39,3,103,39KoreanPoliteness_F0_EQ,1,F,1,"<?xml version=""1.0""?>\n<Clock xmlns:dt=""urn:schemas-microsoft-com:datatypes""><Description dt:dt=""string"">E-Prime Primary Realtime Clock</Description><StartTime><Timestamp dt:dt=""int"">0</Timestamp><DateUtc dt:dt=""string"">2014-10-23T20:02:42Z</DateUtc></StartTime><FrequencyChanges><FrequencyChange><Frequency dt:dt=""r8"">2857431</Frequency><Timestamp dt:dt=""r8"">223275293464</Timestamp><Current dt:dt=""r8"">0</Current><DateUtc dt:dt=""string"">2014-10-23T20:02:42Z</DateUtc></FrequencyChange></FrequencyChanges></Clock>\n",59.944,1,-62433660,10/23/14,13:02:43,8:02:43 PM,2,2,1,2,Test,List1,3,,,,,,BlockProc,,,,,,,,,SpeakerBlocks,,,,6,1,3,6,24,8,Hi,5,TrialProc,0,8,-999999,24,609988,2,313,610301,StimList,5,16Perc_HiF0_6_5_con.wav,6,F,4,3,104,4KoreanPoliteness_F0_EQ,1,F,1,"<?xml version=""1.0""?>\n<Clock xmlns:dt=""urn:schemas-microsoft-com:datatypes""><Description dt:dt=""string"">E-Prime Primary Realtime Clock</Description><StartTime><Timestamp dt:dt=""int"">0</Timestamp><DateUtc dt:dt=""string"">2014-10-23T20:02:42Z</DateUtc></StartTime><FrequencyChanges><FrequencyChange><Frequency dt:dt=""r8"">2857431</Frequency><Timestamp dt:dt=""r8"">223275293464</Timestamp><Current dt:dt=""r8"">0</Current><DateUtc dt:dt=""string"">2014-10-23T20:02:42Z</DateUtc></FrequencyChange></FrequencyChanges></Clock>\n",59.944,1,-62433660,10/23/14,13:02:43,8:02:43 PM,2,2,1,2,Test,List1,3,,,,,,BlockProc,,,,,,,,,SpeakerBlocks,,,,6,1,3,6,25,8,MidLo,2,TrialProc,0,8,-999999,24,613508,2,585,614093,StimList,10,08Perc_LoF0_6_10_con.wav,6,F,24,3,105,24KoreanPoliteness_F0_EQ,1,F,1,"<?xml version=""1.0""?>\n<Clock xmlns:dt=""urn:schemas-microsoft-com:datatypes""><Description dt:dt=""string"">E-Prime Primary Realtime Clock</Description><StartTime><Timestamp dt:dt=""int"">0</Timestamp><DateUtc dt:dt=""string"">2014-10-23T20:02:42Z</DateUtc></StartTime><FrequencyChanges><FrequencyChange><Frequency dt:dt=""r8"">2857431</Frequency><Timestamp dt:dt=""r8"">223275293464</Timestamp><Current dt:dt=""r8"">0</Current><DateUtc dt:dt=""string"">2014-10-23T20:02:42Z</DateUtc></FrequencyChange></FrequencyChanges></Clock>\n",59.944,1,-62433660,10/23/14,13:02:43,8:02:43 PM,2,2,1,2,Test,List1,3,,,,,,BlockProc,,,,,,,,,SpeakerBlocks,,,,6,1,3,6,26,8,Hi,5,TrialProc,1,8,-999999,18,618112,8,349,618461,StimList,4,16Perc_HiF0_6_4_con.wav,6,F,3,3,106,3KoreanPoliteness_F0_EQ,1,F,1,"<?xml version=""1.0""?>\n<Clock xmlns:dt=""urn:schemas-microsoft-com:datatypes""><Description dt:dt=""string"">E-Prime Primary Realtime Clock</Description><StartTime><Timestamp dt:dt=""int"">0</Timestamp><DateUtc dt:dt=""string"">2014-10-23T20:02:42Z</DateUtc></StartTime><FrequencyChanges><FrequencyChange><Frequency dt:dt=""r8"">2857431</Frequency><Timestamp dt:dt=""r8"">223275293464</Timestamp><Current dt:dt=""r8"">0</Current><DateUtc dt:dt=""string"">2014-10-23T20:02:42Z</DateUtc></FrequencyChange></FrequencyChanges></Clock>\n",59.944,1,-62433660,10/23/14,13:02:43,8:02:43 PM,2,2,1,2,Test,List1,3,,,,,,BlockProc,,,,,,,,,SpeakerBlocks,,,,6,1,3,6,27,8,Orig,3,TrialProc,1,8,-999999,25,621749,8,352,622101,StimList,1,6_1_con.wav,6,F,33,3,107,33KoreanPoliteness_F0_EQ,1,F,1,"<?xml version=""1.0""?>\n<Clock xmlns:dt=""urn:schemas-microsoft-com:datatypes""><Description dt:dt=""string"">E-Prime Primary Realtime Clock</Description><StartTime><Timestamp dt:dt=""int"">0</Timestamp><DateUtc dt:dt=""string"">2014-10-23T20:02:42Z</DateUtc></StartTime><FrequencyChanges><FrequencyChange><Frequency dt:dt=""r8"">2857431</Frequency><Timestamp dt:dt=""r8"">223275293464</Timestamp><Current dt:dt=""r8"">0</Current><DateUtc dt:dt=""string"">2014-10-23T20:02:42Z</DateUtc></FrequencyChange></FrequencyChanges></Clock>\n",59.944,1,-62433660,10/23/14,13:02:43,8:02:43 PM,2,2,1,2,Test,List1,3,,,,,,BlockProc,,,,,,,,,SpeakerBlocks,,,,6,1,3,6,28,8,MidHi,4,TrialProc,1,8,-999999,24,625369,8,420,625789,StimList,1,08Perc_HiF0_6_1_con.wav,6,F,9,3,108,9KoreanPoliteness_F0_EQ,1,F,1,"<?xml version=""1.0""?>\n<Clock xmlns:dt=""urn:schemas-microsoft-com:datatypes""><Description dt:dt=""string"">E-Prime Primary Realtime Clock</Description><StartTime><Timestamp dt:dt=""int"">0</Timestamp><DateUtc dt:dt=""string"">2014-10-23T20:02:42Z</DateUtc></StartTime><FrequencyChanges><FrequencyChange><Frequency dt:dt=""r8"">2857431</Frequency><Timestamp dt:dt=""r8"">223275293464</Timestamp><Current dt:dt=""r8"">0</Current><DateUtc dt:dt=""string"">2014-10-23T20:02:42Z</DateUtc></FrequencyChange></FrequencyChanges></Clock>\n",59.944,1,-62433660,10/23/14,13:02:43,8:02:43 PM,2,2,1,2,Test,List1,3,,,,,,BlockProc,,,,,,,,,SpeakerBlocks,,,,6,1,3,6,29,8,Orig,3,TrialProc,0,8,-999999,22,628956,2,401,629357,StimList,10,6_10_con.wav,6,F,40,3,109,40KoreanPoliteness_F0_EQ,1,F,1,"<?xml version=""1.0""?>\n<Clock xmlns:dt=""urn:schemas-microsoft-com:datatypes""><Description dt:dt=""string"">E-Prime Primary Realtime Clock</Description><StartTime><Timestamp dt:dt=""int"">0</Timestamp><DateUtc dt:dt=""string"">2014-10-23T20:02:42Z</DateUtc></StartTime><FrequencyChanges><FrequencyChange><Frequency dt:dt=""r8"">2857431</Frequency><Timestamp dt:dt=""r8"">223275293464</Timestamp><Current dt:dt=""r8"">0</Current><DateUtc dt:dt=""string"">2014-10-23T20:02:42Z</DateUtc></FrequencyChange></FrequencyChanges></Clock>\n",59.944,1,-62433660,10/23/14,13:02:43,8:02:43 PM,2,2,1,2,Test,List1,3,,,,,,BlockProc,,,,,,,,,SpeakerBlocks,,,,6,1,3,6,30,8,MidLo,2,TrialProc,0,8,-999999,12,632926,2,607,633533,StimList,7,08Perc_LoF0_6_7_con.wav,6,F,22,3,110,22KoreanPoliteness_F0_EQ,1,F,1,"<?xml version=""1.0""?>\n<Clock xmlns:dt=""urn:schemas-microsoft-com:datatypes""><Description dt:dt=""string"">E-Prime Primary Realtime Clock</Description><StartTime><Timestamp dt:dt=""int"">0</Timestamp><DateUtc dt:dt=""string"">2014-10-23T20:02:42Z</DateUtc></StartTime><FrequencyChanges><FrequencyChange><Frequency dt:dt=""r8"">2857431</Frequency><Timestamp dt:dt=""r8"">223275293464</Timestamp><Current dt:dt=""r8"">0</Current><DateUtc dt:dt=""string"">2014-10-23T20:02:42Z</DateUtc></FrequencyChange></FrequencyChanges></Clock>\n",59.944,1,-62433660,10/23/14,13:02:43,8:02:43 PM,2,2,1,2,Test,List1,3,,,,,,BlockProc,,,,,,,,,SpeakerBlocks,,,,6,1,3,6,31,8,MidHi,4,TrialProc,1,8,-999999,16,636780,8,441,637221,StimList,2,08Perc_HiF0_6_2_con.wav,6,F,10,3,111,10KoreanPoliteness_F0_EQ,1,F,1,"<?xml version=""1.0""?>\n<Clock xmlns:dt=""urn:schemas-microsoft-com:datatypes""><Description dt:dt=""string"">E-Prime Primary Realtime Clock</Description><StartTime><Timestamp dt:dt=""int"">0</Timestamp><DateUtc dt:dt=""string"">2014-10-23T20:02:42Z</DateUtc></StartTime><FrequencyChanges><FrequencyChange><Frequency dt:dt=""r8"">2857431</Frequency><Timestamp dt:dt=""r8"">223275293464</Timestamp><Current dt:dt=""r8"">0</Current><DateUtc dt:dt=""string"">2014-10-23T20:02:42Z</DateUtc></FrequencyChange></FrequencyChanges></Clock>\n",59.944,1,-62433660,10/23/14,13:02:43,8:02:43 PM,2,2,1,2,Test,List1,3,,,,,,BlockProc,,,,,,,,,SpeakerBlocks,,,,6,1,3,6,32,8,Lo,1,TrialProc,1,8,-999999,13,640717,8,408,641125,StimList,9,16Perc_LoF0_6_9_con.wav,6,F,31,3,112,31KoreanPoliteness_F0_EQ,1,F,1,"<?xml version=""1.0""?>\n<Clock xmlns:dt=""urn:schemas-microsoft-com:datatypes""><Description dt:dt=""string"">E-Prime Primary Realtime Clock</Description><StartTime><Timestamp dt:dt=""int"">0</Timestamp><DateUtc dt:dt=""string"">2014-10-23T20:02:42Z</DateUtc></StartTime><FrequencyChanges><FrequencyChange><Frequency dt:dt=""r8"">2857431</Frequency><Timestamp dt:dt=""r8"">223275293464</Timestamp><Current dt:dt=""r8"">0</Current><DateUtc dt:dt=""string"">2014-10-23T20:02:42Z</DateUtc></FrequencyChange></FrequencyChanges></Clock>\n",59.944,1,-62433660,10/23/14,13:02:43,8:02:43 PM,2,2,1,2,Test,List1,3,,,,,,BlockProc,,,,,,,,,SpeakerBlocks,,,,6,1,3,6,33,8,MidHi,4,TrialProc,0,8,-999999,20,645004,2,593,645597,StimList,5,08Perc_HiF0_6_5_con.wav,6,F,12,3,113,12KoreanPoliteness_F0_EQ,1,F,1,"<?xml version=""1.0""?>\n<Clock xmlns:dt=""urn:schemas-microsoft-com:datatypes""><Description dt:dt=""string"">E-Prime Primary Realtime Clock</Description><StartTime><Timestamp dt:dt=""int"">0</Timestamp><DateUtc dt:dt=""string"">2014-10-23T20:02:42Z</DateUtc></StartTime><FrequencyChanges><FrequencyChange><Frequency dt:dt=""r8"">2857431</Frequency><Timestamp dt:dt=""r8"">223275293464</Timestamp><Current dt:dt=""r8"">0</Current><DateUtc dt:dt=""string"">2014-10-23T20:02:42Z</DateUtc></FrequencyChange></FrequencyChanges></Clock>\n",59.944,1,-62433660,10/23/14,13:02:43,8:02:43 PM,2,2,1,2,Test,List1,3,,,,,,BlockProc,,,,,,,,,SpeakerBlocks,,,,6,1,3,6,34,8,Lo,1,TrialProc,0,8,-999999,14,648908,2,889,649797,StimList,6,16Perc_LoF0_6_6_con.wav,6,F,29,3,114,29KoreanPoliteness_F0_EQ,1,F,1,"<?xml version=""1.0""?>\n<Clock xmlns:dt=""urn:schemas-microsoft-com:datatypes""><Description dt:dt=""string"">E-Prime Primary Realtime Clock</Description><StartTime><Timestamp dt:dt=""int"">0</Timestamp><DateUtc dt:dt=""string"">2014-10-23T20:02:42Z</DateUtc></StartTime><FrequencyChanges><FrequencyChange><Frequency dt:dt=""r8"">2857431</Frequency><Timestamp dt:dt=""r8"">223275293464</Timestamp><Current dt:dt=""r8"">0</Current><DateUtc dt:dt=""string"">2014-10-23T20:02:42Z</DateUtc></FrequencyChange></FrequencyChanges></Clock>\n",59.944,1,-62433660,10/23/14,13:02:43,8:02:43 PM,2,2,1,2,Test,List1,3,,,,,,BlockProc,,,,,,,,,SpeakerBlocks,,,,6,1,3,6,35,8,Lo,1,TrialProc,1,8,-999999,18,653362,8,627,653989,StimList,7,16Perc_LoF0_6_7_con.wav,6,F,30,3,115,30KoreanPoliteness_F0_EQ,1,F,1,"<?xml version=""1.0""?>\n<Clock xmlns:dt=""urn:schemas-microsoft-com:datatypes""><Description dt:dt=""string"">E-Prime Primary Realtime Clock</Description><StartTime><Timestamp dt:dt=""int"">0</Timestamp><DateUtc dt:dt=""string"">2014-10-23T20:02:42Z</DateUtc></StartTime><FrequencyChanges><FrequencyChange><Frequency dt:dt=""r8"">2857431</Frequency><Timestamp dt:dt=""r8"">223275293464</Timestamp><Current dt:dt=""r8"">0</Current><DateUtc dt:dt=""string"">2014-10-23T20:02:42Z</DateUtc></FrequencyChange></FrequencyChanges></Clock>\n",59.944,1,-62433660,10/23/14,13:02:43,8:02:43 PM,2,2,1,2,Test,List1,3,,,,,,BlockProc,,,,,,,,,SpeakerBlocks,,,,6,1,3,6,36,8,MidHi,4,TrialProc,1,8,-999999,25,657499,8,706,658205,StimList,9,08Perc_HiF0_6_9_con.wav,6,F,15,3,116,15KoreanPoliteness_F0_EQ,1,F,1,"<?xml version=""1.0""?>\n<Clock xmlns:dt=""urn:schemas-microsoft-com:datatypes""><Description dt:dt=""string"">E-Prime Primary Realtime Clock</Description><StartTime><Timestamp dt:dt=""int"">0</Timestamp><DateUtc dt:dt=""string"">2014-10-23T20:02:42Z</DateUtc></StartTime><FrequencyChanges><FrequencyChange><Frequency dt:dt=""r8"">2857431</Frequency><Timestamp dt:dt=""r8"">223275293464</Timestamp><Current dt:dt=""r8"">0</Current><DateUtc dt:dt=""string"">2014-10-23T20:02:42Z</DateUtc></FrequencyChange></FrequencyChanges></Clock>\n",59.944,1,-62433660,10/23/14,13:02:43,8:02:43 PM,2,2,1,2,Test,List1,3,,,,,,BlockProc,,,,,,,,,SpeakerBlocks,,,,6,1,3,6,37,8,Hi,5,TrialProc,1,8,-999999,20,661453,8,503,661956,StimList,2,16Perc_HiF0_6_2_con.wav,6,F,2,3,117,2KoreanPoliteness_F0_EQ,1,F,1,"<?xml version=""1.0""?>\n<Clock xmlns:dt=""urn:schemas-microsoft-com:datatypes""><Description dt:dt=""string"">E-Prime Primary Realtime Clock</Description><StartTime><Timestamp dt:dt=""int"">0</Timestamp><DateUtc dt:dt=""string"">2014-10-23T20:02:42Z</DateUtc></StartTime><FrequencyChanges><FrequencyChange><Frequency dt:dt=""r8"">2857431</Frequency><Timestamp dt:dt=""r8"">223275293464</Timestamp><Current dt:dt=""r8"">0</Current><DateUtc dt:dt=""string"">2014-10-23T20:02:42Z</DateUtc></FrequencyChange></FrequencyChanges></Clock>\n",59.944,1,-62433660,10/23/14,13:02:43,8:02:43 PM,2,2,1,2,Test,List1,3,,,,,,BlockProc,,,,,,,,,SpeakerBlocks,,,,6,1,3,6,38,8,Lo,1,TrialProc,1,8,-999999,17,665991,8,381,666372,StimList,4,16Perc_LoF0_6_4_con.wav,6,F,27,3,118,27KoreanPoliteness_F0_EQ,1,F,1,"<?xml version=""1.0""?>\n<Clock xmlns:dt=""urn:schemas-microsoft-com:datatypes""><Description dt:dt=""string"">E-Prime Primary Realtime Clock</Description><StartTime><Timestamp dt:dt=""int"">0</Timestamp><DateUtc dt:dt=""string"">2014-10-23T20:02:42Z</DateUtc></StartTime><FrequencyChanges><FrequencyChange><Frequency dt:dt=""r8"">2857431</Frequency><Timestamp dt:dt=""r8"">223275293464</Timestamp><Current dt:dt=""r8"">0</Current><DateUtc dt:dt=""string"">2014-10-23T20:02:42Z</DateUtc></FrequencyChange></FrequencyChanges></Clock>\n",59.944,1,-62433660,10/23/14,13:02:43,8:02:43 PM,2,2,1,2,Test,List1,3,,,,,,BlockProc,,,,,,,,,SpeakerBlocks,,,,6,1,3,6,39,8,MidLo,2,TrialProc,1,8,-999999,11,669695,8,565,670260,StimList,1,08Perc_LoF0_6_1_con.wav,6,F,17,3,119,17KoreanPoliteness_F0_EQ,1,F,1,"<?xml version=""1.0""?>\n<Clock xmlns:dt=""urn:schemas-microsoft-com:datatypes""><Description dt:dt=""string"">E-Prime Primary Realtime Clock</Description><StartTime><Timestamp dt:dt=""int"">0</Timestamp><DateUtc dt:dt=""string"">2014-10-23T20:02:42Z</DateUtc></StartTime><FrequencyChanges><FrequencyChange><Frequency dt:dt=""r8"">2857431</Frequency><Timestamp dt:dt=""r8"">223275293464</Timestamp><Current dt:dt=""r8"">0</Current><DateUtc dt:dt=""string"">2014-10-23T20:02:42Z</DateUtc></FrequencyChange></FrequencyChanges></Clock>\n",59.944,1,-62433660,10/23/14,13:02:43,8:02:43 PM,2,2,1,2,Test,List1,3,,,,,,BlockProc,,,,,,,,,SpeakerBlocks,,,,6,1,3,6,40,8,MidLo,2,TrialProc,1,8,-999999,20,673514,8,242,673756,StimList,2,08Perc_LoF0_6_2_con.wav,6,F,18,3,120,18KoreanPoliteness_F0_EQ,1,F,1,"<?xml version=""1.0""?>\n<Clock xmlns:dt=""urn:schemas-microsoft-com:datatypes""><Description dt:dt=""string"">E-Prime Primary Realtime Clock</Description><StartTime><Timestamp dt:dt=""int"">0</Timestamp><DateUtc dt:dt=""string"">2014-10-23T20:02:42Z</DateUtc></StartTime><FrequencyChanges><FrequencyChange><Frequency dt:dt=""r8"">2857431</Frequency><Timestamp dt:dt=""r8"">223275293464</Timestamp><Current dt:dt=""r8"">0</Current><DateUtc dt:dt=""string"">2014-10-23T20:02:42Z</DateUtc></FrequencyChange></FrequencyChanges></Clock>\n",59.944,1,-62433660,10/23/14,13:02:43,8:02:43 PM,2,2,1,2,Test,List1,4,,,,,,BlockProc,,,,,,,,,SpeakerBlocks,,,,7,1,4,7,1,8,MidLo,2,TrialProc,0,8,-999999,25,678619,2,833,679452,StimList,4,08Perc_LoF0_7_4_con.wav,7,M,19,4,121,19KoreanPoliteness_F0_EQ,1,F,1,"<?xml version=""1.0""?>\n<Clock xmlns:dt=""urn:schemas-microsoft-com:datatypes""><Description dt:dt=""string"">E-Prime Primary Realtime Clock</Description><StartTime><Timestamp dt:dt=""int"">0</Timestamp><DateUtc dt:dt=""string"">2014-10-23T20:02:42Z</DateUtc></StartTime><FrequencyChanges><FrequencyChange><Frequency dt:dt=""r8"">2857431</Frequency><Timestamp dt:dt=""r8"">223275293464</Timestamp><Current dt:dt=""r8"">0</Current><DateUtc dt:dt=""string"">2014-10-23T20:02:42Z</DateUtc></FrequencyChange></FrequencyChanges></Clock>\n",59.944,1,-62433660,10/23/14,13:02:43,8:02:43 PM,2,2,1,2,Test,List1,4,,,,,,BlockProc,,,,,,,,,SpeakerBlocks,,,,7,1,4,7,2,8,Lo,1,TrialProc,0,8,-999999,22,682756,2,1040,683796,StimList,4,16Perc_LoF0_7_4_con.wav,7,M,27,4,122,27KoreanPoliteness_F0_EQ,1,F,1,"<?xml version=""1.0""?>\n<Clock xmlns:dt=""urn:schemas-microsoft-com:datatypes""><Description dt:dt=""string"">E-Prime Primary Realtime Clock</Description><StartTime><Timestamp dt:dt=""int"">0</Timestamp><DateUtc dt:dt=""string"">2014-10-23T20:02:42Z</DateUtc></StartTime><FrequencyChanges><FrequencyChange><Frequency dt:dt=""r8"">2857431</Frequency><Timestamp dt:dt=""r8"">223275293464</Timestamp><Current dt:dt=""r8"">0</Current><DateUtc dt:dt=""string"">2014-10-23T20:02:42Z</DateUtc></FrequencyChange></FrequencyChanges></Clock>\n",59.944,1,-62433660,10/23/14,13:02:43,8:02:43 PM,2,2,1,2,Test,List1,4,,,,,,BlockProc,,,,,,,,,SpeakerBlocks,,,,7,1,4,7,3,8,MidLo,2,TrialProc,0,8,-999999,16,686910,2,774,687684,StimList,9,08Perc_LoF0_7_9_con.wav,7,M,23,4,123,23KoreanPoliteness_F0_EQ,1,F,1,"<?xml version=""1.0""?>\n<Clock xmlns:dt=""urn:schemas-microsoft-com:datatypes""><Description dt:dt=""string"">E-Prime Primary Realtime Clock</Description><StartTime><Timestamp dt:dt=""int"">0</Timestamp><DateUtc dt:dt=""string"">2014-10-23T20:02:42Z</DateUtc></StartTime><FrequencyChanges><FrequencyChange><Frequency dt:dt=""r8"">2857431</Frequency><Timestamp dt:dt=""r8"">223275293464</Timestamp><Current dt:dt=""r8"">0</Current><DateUtc dt:dt=""string"">2014-10-23T20:02:42Z</DateUtc></FrequencyChange></FrequencyChanges></Clock>\n",59.944,1,-62433660,10/23/14,13:02:43,8:02:43 PM,2,2,1,2,Test,List1,4,,,,,,BlockProc,,,,,,,,,SpeakerBlocks,,,,7,1,4,7,4,8,Hi,5,TrialProc,0,8,-999999,23,690947,2,953,691900,StimList,4,16Perc_HiF0_7_4_con.wav,7,M,3,4,124,3KoreanPoliteness_F0_EQ,1,F,1,"<?xml version=""1.0""?>\n<Clock xmlns:dt=""urn:schemas-microsoft-com:datatypes""><Description dt:dt=""string"">E-Prime Primary Realtime Clock</Description><StartTime><Timestamp dt:dt=""int"">0</Timestamp><DateUtc dt:dt=""string"">2014-10-23T20:02:42Z</DateUtc></StartTime><FrequencyChanges><FrequencyChange><Frequency dt:dt=""r8"">2857431</Frequency><Timestamp dt:dt=""r8"">223275293464</Timestamp><Current dt:dt=""r8"">0</Current><DateUtc dt:dt=""string"">2014-10-23T20:02:42Z</DateUtc></FrequencyChange></FrequencyChanges></Clock>\n",59.944,1,-62433660,10/23/14,13:02:43,8:02:43 PM,2,2,1,2,Test,List1,4,,,,,,BlockProc,,,,,,,,,SpeakerBlocks,,,,7,1,4,7,5,8,Lo,1,TrialProc,1,8,-999999,19,695752,8,516,696268,StimList,5,16Perc_LoF0_7_5_con.wav,7,M,28,4,125,28